Index,Time,GX,GY,GZ,AX,AY,AZ,MX,MY,MZ,H,R,P
0,1459120890,0,0,0,0,0,0,0,0,0,166.84,0,-0
1,1459120890,0,0,0,0,0,0,0,0,0,166.84,0,-0
2,1459120890,-0.246735,-2.42249,-4.17206,0,-0.127991,1.00061,-0.1351,0.33026,-0.1624,279.088,-7.28927,-0
3,1459120890,0,0,0,0,0,0,0,0,0,279.088,-7.28927,-0
4,1459120890,0,0,0,0,0,0,0,0,0,279.088,-7.28927,-0
5,1459120890,-0.650482,-0.530853,0.770111,-0.0916138,-0.157532,0.983093,-0.15176,0.29988,-0.15708,281.351,-8.33291,3.06217
6,1459120890,-0.919647,-1.21872,3.01315,-0.0593262,-0.125366,0.980347,-0.13664,0.29764,-0.0861,281.399,-7.92707,3.21806
7,1459120891,1.92154,-0.209351,2.7066,-0.104187,-0.153015,1.02032,-0.13202,0.31878,-0.16408,280.867,-8.11393,4.03021
8,1459120891,-0.463562,0.104675,2.33276,-0.119812,-0.0685425,1.01257,-0.1344,0.3206,-0.15708,280.6,-7.03966,4.72505
9,1459120891,-2.01874,-0.800018,2.13089,-0.0822144,-0.118652,0.971863,-0.16492,0.30436,-0.15022,281.411,-7.02278,4.74864
10,1459120891,1.08414,-1.2262,3.40195,-0.0884399,-0.13739,0.991028,-0.10878,0.36624,-0.15834,280.115,-7.19265,4.81708
11,1459120891,2.74399,2.258,6.10107,-0.146545,-0.168335,1.03967,-0.15512,0.31066,-0.1477,280.537,-7.56524,5.41357
12,1459120892,-0.710297,-1.15891,3.87299,-0.0907593,-0.0742188,1.00189,-0.12558,0.33404,-0.09408,280.171,-7.01747,5.37431
13,1459120892,0.119629,-0.785065,5.36087,-0.0760498,-0.128418,1.00549,-0.10192,0.3388,-0.13468,279.473,-7.0581,5.21114
14,1459120892,0.897217,-0.276642,5.51788,-0.0996094,-0.165771,0.995239,-0.1078,0.31836,-0.08526,279.11,-7.41063,5.28494
15,1459120892,0.740204,-0.396271,6.13098,-0.125549,-0.125732,1.00604,-0.10486,0.35042,-0.12012,278.593,-7.37018,5.54366
16,1459120892,-0.86731,0.194397,4.71039,-0.101807,-0.112244,0.99762,-0.09506,0.33628,-0.15218,278.106,-7.2425,5.58177
17,1459120893,1.69724,-2.16827,4.47861,-0.0722046,-0.125366,1.00372,-0.084,0.35686,-0.15036,277.467,-7.22641,5.39034
18,1459120893,0.396271,0.807495,6.80389,-0.120178,-0.180969,1.00439,-0.11466,0.36316,-0.12166,277.227,-7.60809,5.57259
19,1459120893,1.21124,0.254211,4.50851,-0.104309,-0.0718384,1.02777,-0.07714,0.35434,-0.16254,276.668,-7.15564,5.60066
20,1459120893,0.0747681,0.665436,6.69922,-0.0908203,-0.130493,1.01141,-0.09352,0.3703,-0.13538,276.28,-7.17941,5.54381
21,1459120893,1.71967,-2.53464,7.06558,-0.085144,-0.148499,1.00049,-0.06272,0.3829,-0.0819,275.616,-7.32825,5.46402
22,1459120894,-1.6449,-0.5159,6.84128,-0.101929,-0.145996,1.00128,-0.0539,0.38584,-0.15204,274.942,-7.44031,5.50433
23,1459120894,2.03369,0.957031,6.66183,-0.102478,-0.0845337,1.05566,-0.04746,0.3682,-0.15204,274.333,-7.10067,5.50913
24,1459120894,-0.246735,-2.57202,6.04126,-0.0910034,-0.140808,0.965454,-0.04522,0.37548,-0.14602,273.747,-7.23039,5.49569
25,1459120894,0.328979,-1.00937,7.46933,-0.104614,-0.177063,0.991272,-0.03164,0.4151,-0.14742,273.024,-7.5505,5.55378
26,1459120894,0.321503,-0.672913,6.94595,-0.12207,-0.104492,1.00665,-0.05768,0.39438,-0.1519,272.606,-7.37204,5.70404
27,1459120895,-1.01685,0.343933,6.56464,-0.102722,-0.125183,1.0094,-0.04914,0.38682,-0.09338,272.182,-7.33898,5.71571
28,1459120895,0.463562,-3.37204,5.47302,-0.0878296,-0.127136,0.991089,0.00168,0.39522,-0.10486,271.431,-7.33588,5.64634
29,1459120895,-0.254211,-0.119629,6.68427,-0.121216,-0.172485,0.993469,-0.03598,0.39998,-0.09296,270.982,-7.60415,5.78567
30,1459120895,-0.16449,-0.957031,5.2861,-0.132751,-0.0910645,0.999756,0.0175,0.41034,-0.1071,270.212,-7.35074,5.97486
31,1459120896,-0.91217,-0.478516,4.60571,-0.085083,-0.136169,0.989807,0.007,0.3941,-0.15582,269.59,-7.40119,5.86409
32,1459120896,1.93649,-1.40564,8.05252,-0.114197,-0.172485,1.01654,0.00658,0.38416,-0.1589,269.028,-7.63985,5.92226
33,1459120896,-0.149536,-1.80191,6.72165,-0.120361,-0.121399,1.00775,-0.00938,0.40978,-0.15316,268.567,-7.55902,6.01573
34,1459120896,-1.28601,-1.129,5.43564,-0.0946045,-0.102417,0.994568,0.02884,0.39928,-0.15876,267.935,-7.38612,5.95568
35,1459120896,-0.86731,-2.15332,6.43005,-0.0803833,-0.150879,0.958862,0.01652,0.39284,-0.13412,267.418,-7.54166,5.83997
36,1459120897,1.27853,0.500946,7.26746,-0.130432,-0.193481,1.02686,0.05236,0.38094,-0.0882,266.753,-7.87571,5.98858
37,1459120897,-0.493469,-0.740204,4.43375,-0.116516,-0.107849,1.00702,0.0539,0.39312,-0.14938,266.108,-7.69387,6.05194
38,1459120897,-3.28232,-1.57013,4.05243,-0.0665283,-0.116089,0.972046,0.06552,0.4025,-0.15428,265.434,-7.60575,5.83909
39,1459120897,1.18134,-2.13837,6.51978,-0.0861206,-0.152893,0.984741,0.07196,0.3864,-0.15554,264.778,-7.7294,5.75417
40,1459120897,0.157013,0.86731,8.32169,-0.134216,-0.167053,1.02728,0.0784,0.3983,-0.15862,264.12,-7.88803,5.93192
41,1459120898,-1.54022,-0.837402,4.8674,-0.0751953,-0.0747681,1.03558,0.08526,0.42322,-0.16198,263.451,-7.49548,5.74536
42,1459120898,-0.37384,-0.934601,5.45059,-0.0703735,-0.128479,0.993103,0.07154,0.39704,-0.12208,262.898,-7.48299,5.5753
43,1459120898,2.22061,-0.986938,8.43384,-0.11731,-0.188232,1.00659,0.10752,0.40782,-0.11494,262.203,-7.80215,5.68473
44,1459120898,0.88974,-0.426178,7.36465,-0.11499,-0.107422,1.03168,0.08596,0.38178,-0.11676,261.653,-7.60969,5.75501
45,1459120898,-2.23557,-0.456085,6.1908,-0.0835571,-0.113098,0.98291,0.12978,0.39956,-0.12404,260.929,-7.5062,5.66629
46,1459120899,2.22809,-2.02621,7.14035,-0.09021,-0.134338,1.01709,0.13244,0.42532,-0.16534,260.223,-7.50804,5.60517
47,1459120899,-0.0299072,0.343933,8.44879,-0.125183,-0.174255,1.00415,0.14042,0.40432,-0.16618,259.523,-7.74516,5.75705
48,1459120899,-1.772,-2.15332,6.06369,-0.104492,-0.0744019,0.975525,0.10892,0.37884,-0.17052,258.993,-7.41474,5.79213
49,1459120899,-0.837402,-1.37573,6.29547,-0.0813599,-0.132935,0.971375,0.15596,0.36274,-0.1652,258.295,-7.45182,5.69381
50,1459120899,-0.396271,-0.261688,8.39645,-0.12323,-0.180725,1.00037,0.12194,0.3969,-0.1659,257.761,-7.73496,5.82814
51,1459120900,0.0822449,-0.441132,6.10107,-0.113586,-0.106506,1.02264,0.15932,0.37072,-0.10612,257.102,-7.55168,5.88059
52,1459120900,-3.32718,-1.30844,4.7702,-0.0650635,-0.120667,0.976318,0.17584,0.39186,-0.1666,256.407,-7.50198,5.67786
53,1459120900,1.48041,-2.08603,5.90668,-0.0928955,-0.144226,0.998535,0.1771,0.35686,-0.1673,255.733,-7.57413,5.64142
54,1459120900,0.822449,0.800018,8.00018,-0.140808,-0.17688,1.01141,0.19012,0.35028,-0.16954,255.036,-7.81379,5.87449
55,1459120900,0.336456,-0.328979,6.03378,-0.129761,-0.115845,1.0105,0.18984,0.3703,-0.1743,254.368,-7.68499,6.02113
56,1459120901,-2.51968,-0.665436,5.40573,-0.0751343,-0.124146,0.972839,0.16128,0.34846,-0.16842,253.827,-7.64465,5.86451
57,1459120901,0.381317,-0.822449,8.17215,-0.104675,-0.161194,0.998596,0.17458,0.32606,-0.11508,253.252,-7.79825,5.87651
58,1459120901,-0.0971985,-1.11404,7.45438,-0.126221,-0.117004,1.02332,0.2149,0.33334,-0.12894,252.552,-7.66777,5.99522
59,1459120901,-3.18512,-1.98135,4.05991,-0.0737915,-0.0838013,0.978149,0.1883,0.29974,-0.11214,251.96,-7.39695,5.83051
60,1459120901,-1.09909,-1.78696,7.37213,-0.0753784,-0.136841,0.966064,0.2233,0.32256,-0.13314,251.27,-7.46177,5.69756
61,1459120902,1.65237,-0.299072,8.00018,-0.115906,-0.180298,1.01294,0.22862,0.32074,-0.17962,250.582,-7.7313,5.7822
62,1459120902,-0.792542,-0.807495,6.32538,-0.119385,-0.124146,1.00342,0.22932,0.32872,-0.18172,249.917,-7.66303,5.88344
63,1459120902,-2.96829,-1.85425,6.22818,-0.069397,-0.124634,0.955139,0.19418,0.28126,-0.16842,249.372,-7.64102,5.71743
64,1459120902,0.037384,-2.00378,7.62634,-0.0811157,-0.154663,0.995605,0.23688,0.2884,-0.18522,248.701,-7.76067,5.61125
65,1459120903,-0.358887,1.11404,7.58896,-0.112732,-0.177979,1.00763,0.20566,0.2716,-0.18046,248.143,-7.99071,5.68967
66,1459120903,-0.605621,-1.19629,5.93658,-0.0967407,-0.092041,0.999512,0.24192,0.26838,-0.11914,247.479,-7.71774,5.67346
67,1459120903,-1.81686,-1.36826,6.28052,-0.0687866,-0.141541,0.980347,0.24486,0.2947,-0.17906,246.836,-7.76694,5.50993
68,1459120903,1.65237,-2.8038,7.48428,-0.0898438,-0.139587,0.981934,0.25592,0.27076,-0.11564,246.161,-7.79902,5.48201
69,1459120903,3.67111,0.403748,3.7085,-0.12854,-0.111084,1.05823,0.2499,0.252,-0.17808,245.511,-7.60821,5.63539
70,1459120904,-1.62994,-1.6449,7.39456,-0.0913086,-0.111145,0.995605,0.26082,0.24262,-0.19012,244.836,-7.48499,5.59598
71,1459120904,-1.37573,-1.83929,6.53473,-0.0733643,-0.139282,0.993042,0.23562,0.27202,-0.18648,244.276,-7.53472,5.45979
72,1459120904,-0.426178,-0.777588,7.00577,-0.10498,-0.163574,0.990479,0.22498,0.20496,-0.13664,243.714,-7.7186,5.5185
73,1459120904,1.65237,1.6449,6.63193,-0.137451,-0.107239,1.04443,0.2296,0.23604,-0.19712,243.172,-7.52573,5.72554
74,1459120904,-3.55896,-1.10657,4.17953,-0.0568237,-0.112793,0.950439,0.24038,0.18788,-0.1127,242.571,-7.45356,5.50646
75,1459120905,0.119629,-2.52716,6.36276,-0.0883789,-0.1474,0.974976,0.25074,0.25242,-0.15624,242,-7.56596,5.47442
76,1459120905,-0.575714,0.231781,8.06,-0.120605,-0.177856,0.985413,0.25256,0.24178,-0.19572,241.428,-7.83199,5.62391
77,1459120905,0.0149536,-1.13647,6.21323,-0.107788,-0.0889893,1.0011,0.25326,0.21742,-0.19656,240.847,-7.55629,5.67646
78,1459120905,-0.755157,-0.650482,6.48239,-0.0766602,-0.139954,0.988708,0.2562,0.23268,-0.19152,240.282,-7.60615,5.55302
79,1459120905,-0.224304,-1.46545,7.08054,-0.0898438,-0.160645,1.00055,0.26236,0.19068,-0.19348,239.673,-7.75913,5.51059
80,1459120906,1.06171,0.493469,6.01135,-0.118958,-0.131287,1.01208,0.22022,0.17108,-0.17178,239.18,-7.72177,5.63204
81,1459120906,-1.08414,-0.254211,5.30853,-0.0916138,-0.136047,1.01068,0.24766,0.16128,-0.12586,238.605,-7.71617,5.58622
82,1459120906,-0.209351,-3.20755,6.3179,-0.0828857,-0.14209,0.981873,0.25046,0.16996,-0.19516,238.039,-7.7673,5.51128
83,1459120906,0.112152,0.194397,7.85812,-0.100952,-0.164612,0.992554,0.24206,0.12572,-0.12866,237.461,-7.93234,5.54083
84,1459120906,1.18881,-0.276642,5.95901,-0.111389,-0.103455,1.02258,0.24416,0.1316,-0.19922,236.889,-7.71251,5.61013
85,1459120907,-1.60751,-1.71967,4.92722,-0.0705566,-0.127075,0.980347,0.23982,0.13496,-0.19936,236.341,-7.68037,5.46351
86,1459120907,1.02432,-2.24304,6.05621,-0.097168,-0.16626,0.989319,0.19712,0.15568,-0.20832,235.944,-7.86589,5.47801
87,1459120907,-0.590668,-0.321503,7.25998,-0.106384,-0.142639,0.997314,0.21826,0.0952,-0.12432,235.425,-7.89329,5.53922
88,1459120907,-0.755157,-1.0318,6.1908,-0.09021,-0.105957,1.0108,0.19054,0.09436,-0.19096,234.987,-7.70056,5.49473
89,1459120907,0.0747681,-2.45987,6.78894,-0.0830688,-0.147156,0.996338,0.20832,0.09548,-0.1309,234.504,-7.7707,5.422
90,1459120908,-0.0822449,-1.09909,8.1572,-0.110352,-0.174805,1.0072,0.21196,0.1218,-0.17472,234.045,-7.98109,5.5059
91,1459120908,-0.777588,-1.10657,6.25809,-0.109741,-0.0913696,0.999268,0.2128,0.0854,-0.19726,233.545,-7.70664,5.58219
92,1459120908,-1.7421,0.134583,6.84875,-0.0910034,-0.121765,1.0094,0.1904,0.07602,-0.20608,233.1,-7.62315,5.53874
93,1459120908,0.239258,-3.20007,6.5123,-0.09375,-0.147339,0.989746,0.19642,0.11774,-0.20678,232.693,-7.70696,5.52608
94,1459120908,0,1.06918,7.1254,-0.126099,-0.14917,1.01434,0.1813,0.07028,-0.2044,232.272,-7.7739,5.68474
95,1459120909,0.0822449,-0.964508,4.3515,-0.0996704,-0.0903931,1.00317,0.15344,0.09436,-0.16324,231.962,-7.51196,5.68366
96,1459120909,-1.79443,-3.34213,5.89172,-0.0921631,-0.151611,0.978577,0.18508,0.05894,-0.1421,231.519,-7.63926,5.65394
97,1459120909,0.628052,-2.24304,6.54968,-0.110413,-0.159363,0.993774,0.17318,0.05866,-0.20622,231.11,-7.78628,5.72232
98,1459120909,2.15332,1.71967,5.88425,-0.129272,-0.123108,1.04602,0.17514,0.04718,-0.14896,230.683,-7.67448,5.86065
99,1459120910,-0.971985,-0.897217,3.40195,-0.0889282,-0.102173,0.981689,0.16744,0.08092,-0.20776,230.325,-7.50505,5.79355
100,1459120910,-2.27295,-2.30286,4.51599,-0.0661621,-0.127502,0.960938,0.16156,0.05544,-0.20958,229.949,-7.51018,5.61517
101,1459120910,-0.37384,0.919647,7.6712,-0.117676,-0.164795,1.00421,0.11886,0.0546,-0.2044,229.693,-7.69309,5.72293
102,1459120910,0.620575,-1.38321,5.49545,-0.118713,-0.106812,1.01434,0.1358,0.05012,-0.1288,229.383,-7.52288,5.81978
103,1459120910,-1.10657,-0.740204,5.86929,-0.0909424,-0.142822,0.987976,0.11298,0.0532,-0.19516,229.143,-7.59257,5.76433
104,1459120911,-0.112152,-2.27295,6.71417,-0.0933228,-0.15625,0.992554,0.12082,0.01624,-0.13818,228.825,-7.72768,5.72524
105,1459120911,-0.343933,-0.321503,7.11792,-0.103821,-0.124512,0.995117,0.12432,0.01134,-0.19194,228.49,-7.6683,5.74829
106,1459120911,1.18134,-0.553284,7.46933,-0.103149,-0.118469,1.02966,0.12208,0.04312,-0.20412,228.209,-7.55483,5.74545
107,1459120911,-0.762634,-3.28979,6.62445,-0.0753784,-0.137268,0.966919,0.11004,0.01792,-0.1904,227.923,-7.60581,5.62079
108,1459120911,-0.246735,-0.194397,7.24503,-0.107788,-0.167969,1.00232,0.09842,0.03262,-0.2079,227.693,-7.7983,5.67279
109,1459120912,0.695343,0.643005,6.6095,-0.124878,-0.0883179,1.02863,0.06622,0.03024,-0.19362,227.551,-7.50272,5.80147
110,1459120912,-1.38321,-1.04675,7.55905,-0.0872803,-0.143066,0.991333,0.05082,0.00294,-0.15204,227.409,-7.57317,5.72522
111,1459120912,0.127106,-2.62436,7.97775,-0.10553,-0.150452,0.993896,0.08148,0.01372,-0.15918,227.195,-7.67632,5.75862
112,1459120912,-0.5159,0.411224,7.43195,-0.113281,-0.146362,0.99707,0.02912,0.00014,-0.14826,227.109,-7.74376,5.83089
113,1459120912,0.321503,-0.575714,6.72165,-0.0968628,-0.0946655,1.01575,0.05978,0.00756,-0.15358,226.946,-7.49929,5.79198
114,1459120913,-1.00189,-1.71967,6.96091,-0.0887451,-0.13031,0.993164,0.06146,0.02198,-0.19586,226.801,-7.49687,5.72393
115,1459120913,-0.231781,-1.65985,6.7067,-0.10791,-0.165405,0.989319,0.03766,-0.00154,-0.20454,226.686,-7.69534,5.77359
116,1459120913,0.478516,0.224304,7.33475,-0.126099,-0.121338,1.00372,-0.00686,-0.00056,-0.17962,226.705,-7.61487,5.91324
117,1459120913,0.18692,1.71219,7.1254,-0.113831,-0.111633,1.01227,0.02016,0.01106,-0.20118,226.664,-7.48151,5.96414
118,1459120913,-0.777588,-1.93649,6.03378,-0.0797119,-0.138123,0.986694,-0.00966,-0.00294,-0.19012,226.688,-7.52967,5.83156
119,1459120914,-0.493469,-0.276642,5.02441,-0.0908813,-0.143555,0.981567,0.01246,0.00588,-0.1225,226.66,-7.60764,5.77829
120,1459120914,1.10657,0.575714,5.54779,-0.121704,-0.115906,1.02289,-0.00098,0.01176,-0.1904,226.684,-7.49099,5.88146
121,1459120914,0.127106,0.72525,6.43005,-0.110229,-0.11615,1.0166,-0.00546,0.01106,-0.19642,226.722,-7.39243,5.91263
122,1459120914,-0.426178,-2.56454,5.18143,-0.0721436,-0.117126,0.998047,-0.01498,0.01442,-0.20118,226.797,-7.32284,5.73584
123,1459120914,-0.755157,-1.129,5.77957,-0.0999756,-0.16687,0.977173,-0.0154,0.0182,-0.19838,226.88,-7.55574,5.74619
124,1459120915,1.32339,0.643005,6.11603,-0.11676,-0.0947266,1.02502,-0.06034,0.00882,-0.18508,227.094,-7.32379,5.82329
125,1459120915,-0.358887,0.0598145,6.10855,-0.100159,-0.12561,1.01526,-0.05474,0.01036,-0.11536,227.295,-7.29639,5.80415
126,1459120915,-1.20377,-2.3851,6.29547,-0.0769043,-0.147339,0.95575,-0.0357,0.00938,-0.15596,227.433,-7.43734,5.6891
127,1459120915,-0.755157,-0.179443,8.23944,-0.0936279,-0.142944,0.997314,-0.0728,0.01386,-0.14812,227.707,-7.50932,5.65655
128,1459120915,2.1907,0.284119,7.11044,-0.114136,-0.100708,1.02832,-0.05796,0.035,-0.15372,227.974,-7.31322,5.72616
129,1459120916,-0.590668,0.157013,5.60013,-0.0881348,-0.124573,1.0036,-0.06636,0.04802,-0.19096,228.297,-7.28943,5.65533
130,1459120916,-1.85425,-3.0954,6.56464,-0.0821533,-0.150635,0.972595,-0.07392,0.05544,-0.1918,228.664,-7.43744,5.57486
131,1459120916,0.0299072,-0.179443,6.48239,-0.117554,-0.1427,0.991699,-0.11578,0.04354,-0.1624,229.162,-7.51219,5.6929
132,1459120916,0.104675,0.149536,7.39456,-0.108276,-0.114624,1.02124,-0.09226,0.03472,-0.18634,229.564,-7.39929,5.7296
133,1459120916,0.00747681,-2.60941,7.00577,-0.0846558,-0.133667,1.00488,-0.12852,0.04424,-0.175,230.122,-7.41713,5.63793
134,1459120917,-0.807495,-1.45798,6.66931,-0.116516,-0.167542,0.97937,-0.09912,0.03766,-0.1211,230.565,-7.64297,5.75061
135,1459120917,0.343933,-0.859833,6.11603,-0.104736,-0.076355,1.01263,-0.09058,0.07854,-0.1897,231.055,-7.30762,5.76626
136,1459120917,-0.545807,-0.269165,7.28989,-0.100586,-0.132812,0.999756,-0.11676,0.07196,-0.1841,231.638,-7.33358,5.76416
137,1459120917,-2.25052,-4.47113,5.21133,-0.102234,-0.126343,0.978333,-0.1232,0.08862,-0.19166,232.279,-7.33603,5.78392
138,1459120918,0.994415,1.21872,5.86929,-0.132935,-0.15686,1.01239,-0.126,0.09856,-0.17948,232.953,-7.48558,5.95634
139,1459120918,0.770111,-0.254211,4.23935,-0.109131,-0.0838623,1.0188,-0.16856,0.06748,-0.17136,233.748,-7.20409,5.97239
140,1459120918,-1.49536,-1.06918,5.17395,-0.071228,-0.129272,0.982178,-0.14532,0.06818,-0.11214,234.457,-7.233,5.79354
141,1459120918,0.179443,-1.76453,5.80948,-0.0812378,-0.138672,0.99585,-0.1358,0.11032,-0.15428,235.202,-7.30233,5.68108
142,1459120918,0.874786,0.343933,6.95343,-0.109436,-0.119568,1.0011,-0.15414,0.10766,-0.1064,236.021,-7.25315,5.73699
143,1459120919,0.942078,0.463562,6.20575,-0.101318,-0.112793,1.0141,-0.14392,0.1183,-0.15582,236.816,-7.16143,5.7338
144,1459120919,-0.254211,-2.17575,5.159,-0.0791626,-0.13147,0.983337,-0.14756,0.1218,-0.18116,237.631,-7.20614,5.62263
145,1459120919,-0.396271,0.426178,7.29736,-0.110413,-0.165283,0.988831,-0.15806,0.1225,-0.18928,238.492,-7.43353,5.6969
146,1459120919,-0.418701,-1.74957,5.63751,-0.103516,-0.0742188,1.0022,-0.19096,0.1071,-0.14014,239.476,-7.11424,5.717
147,1459120919,0.291595,0.485992,7.94037,-0.106812,-0.145752,1.02777,-0.16436,0.15806,-0.17794,240.411,-7.21269,5.7392
148,1459120920,-1.51779,-3.45428,6.05621,-0.0820312,-0.118835,0.980347,-0.18508,0.12376,-0.15358,241.389,-7.18316,5.64553
149,1459120920,-1.62994,0,5.92911,-0.103088,-0.143005,0.989807,-0.14392,0.13832,-0.11368,242.199,-7.2863,5.67533
150,1459120920,0.837402,0.0971985,7.17026,-0.116333,-0.0926514,1.0202,-0.14658,0.17682,-0.18704,243.059,-7.07325,5.76008
151,1459120920,-1.01685,-2.65427,5.79453,-0.078125,-0.110046,0.975525,-0.16548,0.17976,-0.17514,243.996,-7.01104,5.6448
152,1459120920,-1.23367,-2.03369,6.64688,-0.0987549,-0.162476,0.991333,-0.17248,0.1785,-0.1757,244.952,-7.24049,5.64919
153,1459120921,1.79443,0.650482,5.95154,-0.121887,-0.0865479,1.02997,-0.16912,0.17976,-0.1701,245.882,-6.99066,5.76262
154,1459120921,-0.785065,0.493469,2.97577,-0.101807,-0.0953369,0.972961,-0.19712,0.19866,-0.16968,246.941,-6.85504,5.78318
155,1459120921,-0.927124,-3.67111,3.98514,-0.0756226,-0.11322,0.966064,-0.17864,0.18452,-0.10682,247.891,-6.83847,5.65645
156,1459120921,-0.785065,-0.568237,7.14783,-0.113098,-0.169495,0.987793,-0.1722,0.2163,-0.12754,248.817,-7.12831,5.74356
157,1459120921,0.396271,-0.261688,5.62256,-0.108337,-0.0791016,1.01178,-0.1897,0.18998,-0.09716,249.789,-6.85944,5.78099
158,1459120922,-0.284119,-1.48788,5.0618,-0.0842896,-0.136047,0.99231,-0.16772,0.23324,-0.12754,250.668,-6.95405,5.68883
159,1459120922,4.3515,1.85425,4.80759,-0.171265,-0.187195,1.0329,-0.16632,0.22666,-0.1617,251.516,-7.29967,6.07678
160,1459120922,0.605621,1.6748,4.94965,-0.110413,-0.0963745,1.02783,-0.16002,0.20804,-0.16996,252.312,-7.10106,6.08238
161,1459120922,-1.33087,-0.291595,4.48608,-0.0910034,-0.107666,1.00391,-0.1561,0.23562,-0.17402,253.081,-7.0031,5.99209
162,1459120922,-0.613098,-2.72156,4.53094,-0.0747681,-0.128601,0.974365,-0.16898,0.23128,-0.17248,253.888,-7.05342,5.83607
163,1459120923,0.403748,0.433655,6.79642,-0.123474,-0.16925,1.00342,-0.18144,0.22834,-0.15036,254.729,-7.30782,5.95465
164,1459120923,-1.15891,-0.994415,4.26178,-0.101562,-0.0855103,0.982849,-0.1617,0.25074,-0.09506,255.467,-7.0788,5.94924
165,1459120923,-0.5159,-1.48041,4.24683,-0.083252,-0.132141,0.987732,-0.16198,0.26236,-0.17304,256.187,-7.13246,5.83735
166,1459120923,2.57202,-1.55518,4.71786,-0.109314,-0.161438,1.01282,-0.16072,0.24304,-0.09646,256.881,-7.3284,5.8701
167,1459120923,-0.343933,0.00747681,5.36835,-0.11792,-0.149048,1.00745,-0.13986,0.2905,-0.16534,257.467,-7.43824,5.95144
168,1459120924,-0.590668,-1.01685,5.78705,-0.0968018,-0.114929,0.994629,-0.15148,0.29652,-0.16058,258.082,-7.35406,5.91237
169,1459120924,0.687866,-2.13837,4.88235,-0.0848999,-0.135315,0.985779,-0.1883,0.27384,-0.15918,258.83,-7.39974,5.81471
170,1459120924,0.224304,0.366364,6.04126,-0.111572,-0.178345,0.996094,-0.16856,0.26824,-0.09548,259.477,-7.67622,5.87232
171,1459120924,0.792542,1.08414,5.14404,-0.128235,-0.095459,1.01642,-0.17836,0.29666,-0.16184,260.139,-7.44222,6.0067
172,1459120925,-0.927124,-0.53833,5.77957,-0.0953369,-0.123535,0.987244,-0.1715,0.2793,-0.09156,260.756,-7.4116,5.95819
173,1459120925,-0.246735,-2.36267,4.61319,-0.0771484,-0.147461,0.985413,-0.1344,0.29652,-0.12194,261.204,-7.52051,5.81207
174,1459120925,-0.665436,-0.837402,6.59454,-0.121826,-0.158752,0.994812,-0.1316,0.32662,-0.16324,261.617,-7.67538,5.92905
175,1459120925,0.418701,-0.171967,4.93469,-0.108826,-0.0919189,1.0141,-0.1211,0.3353,-0.1729,261.972,-7.42302,5.94897
176,1459120925,-2.16827,-3.20755,3.89542,-0.067688,-0.114319,0.964417,-0.12488,0.33502,-0.1666,262.329,-7.35886,5.76203
177,1459120926,-0.478516,-1.33087,5.51041,-0.0898438,-0.156616,0.976624,-0.11774,0.33208,-0.15554,262.648,-7.53178,5.71232
178,1459120926,1.60751,0.112152,5.89172,-0.137939,-0.127563,1.01862,-0.15386,0.31864,-0.13888,263.094,-7.49154,5.9176
179,1459120926,-0.598145,-0.411224,3.73093,-0.0947876,-0.106323,0.995911,-0.1008,0.32732,-0.08148,263.33,-7.35213,5.86956
180,1459120926,-0.246735,-2.33276,4.94965,-0.0861206,-0.140381,0.991211,-0.0987,0.37548,-0.15204,263.53,-7.42282,5.77966
181,1459120926,0.343933,-0.037384,6.01883,-0.110535,-0.175415,0.992004,-0.10402,0.35322,-0.0931,263.751,-7.68412,5.83738
182,1459120927,1.30096,0.680389,4.58328,-0.124573,-0.105896,1.0321,-0.09674,0.36862,-0.15764,263.932,-7.49608,5.94554
183,1459120927,-2.44492,-0.613098,3.60382,-0.0803833,-0.131104,0.99292,-0.08722,0.34678,-0.15554,264.084,-7.49863,5.81477
184,1459120927,0.358887,-2.41501,4.27673,-0.0836792,-0.135681,0.981812,-0.1211,0.34972,-0.15876,264.344,-7.53506,5.72197
185,1459120927,2.23557,1.68976,6.07864,-0.122314,-0.184998,1.00616,-0.09912,0.35826,-0.08792,264.518,-7.8279,5.84419
186,1459120927,-0.239258,-1.3533,5.48798,-0.112488,-0.0888062,1.00891,-0.11116,0.3794,-0.15806,264.717,-7.54673,5.89654
187,1459120928,-0.0971985,-0.246735,6.32538,-0.09198,-0.149536,1.0083,-0.07658,0.3528,-0.1008,264.808,-7.63658,5.82759
188,1459120928,1.30096,-2.35519,6.26556,-0.0968628,-0.155518,1.00861,-0.05698,0.36666,-0.13398,264.826,-7.75067,5.79313
189,1459120928,0.269165,0.381317,5.85434,-0.119995,-0.149414,1.0152,-0.04662,0.4011,-0.16198,264.795,-7.81377,5.88933
190,1459120928,-3.70102,-1.32339,4.90479,-0.0860596,-0.0794678,0.98877,-0.04564,0.4123,-0.16058,264.757,-7.49757,5.79904
191,1459120928,-0.037384,-1.53275,5.34592,-0.0741577,-0.148376,0.981934,-0.0308,0.38766,-0.15848,264.685,-7.6055,5.65383
192,1459120929,1.59256,-0.590668,6.28799,-0.122986,-0.183716,1.02106,-0.02968,0.39522,-0.15372,264.609,-7.87177,5.77795
193,1459120929,-1.33087,-3.55148,5.56274,-0.104492,-0.0908203,1.00012,-0.05824,0.37996,-0.14546,264.629,-7.60504,5.79661
194,1459120929,-1.70471,-0.261688,7.04315,-0.086792,-0.132874,0.997681,-0.01092,0.38836,-0.09674,264.501,-7.60316,5.71447
195,1459120929,1.6748,-1.70471,6.36276,-0.0949097,-0.146301,1.01892,-0.00294,0.43918,-0.16688,264.334,-7.66094,5.67456
196,1459120929,1.15143,0.672913,6.75903,-0.119934,-0.155823,1.01526,0.00504,0.3759,-0.09198,264.174,-7.7689,5.78224
197,1459120930,-1.18134,-2.34772,7.63382,-0.0895996,-0.0899048,0.99115,0.01316,0.3913,-0.16478,263.988,-7.51446,5.72132
198,1459120930,-1.71219,-1.60751,6.50482,-0.0730591,-0.132996,0.975159,0.01218,0.4116,-0.1659,263.804,-7.53904,5.58146
199,1459120930,1.37573,-1.72714,7.70859,-0.122253,-0.174866,1.00787,-0.0063,0.38024,-0.16184,263.689,-7.77235,5.71621
200,1459120930,-0.897217,-1.02432,5.09918,-0.118896,-0.101196,1.00745,0.02212,0.40726,-0.08344,263.487,-7.56825,5.81847
201,1459120930,-0.837402,0.807495,4.8674,-0.0982056,-0.120422,1.01251,0.0189,0.3885,-0.15442,263.306,-7.48901,5.79034
202,1459120931,-0.246735,-2.63931,4.2244,-0.0665283,-0.125916,0.974426,0.03416,0.39046,-0.08372,263.088,-7.47673,5.60711
203,1459120931,1.38321,0.471039,5.15152,-0.115417,-0.17334,1.0141,0.05614,0.3794,-0.13244,262.818,-7.70309,5.69699
204,1459120931,0.291595,-0.142059,5.29358,-0.138306,-0.111755,1.02618,0.06342,0.38304,-0.1673,262.533,-7.55139,5.90006
205,1459120931,-3.22998,-0.957031,5.21881,-0.0834961,-0.128967,0.967407,0.04816,0.4137,-0.15736,262.29,-7.55546,5.80663
206,1459120931,1.78696,-1.06918,5.95901,-0.0933228,-0.147156,1.00385,0.07308,0.41062,-0.16828,261.987,-7.6343,5.75695
207,1459120932,1.79443,1.0318,6.96838,-0.148743,-0.187561,1.03394,0.08036,0.38822,-0.1673,261.678,-7.90876,6.00834
208,1459120932,-1.36078,-2.13089,4.68796,-0.100464,-0.0869751,0.990967,0.0567,0.39466,-0.13244,261.439,-7.62433,5.98665
209,1459120932,-1.24115,-0.553284,4.91226,-0.0665894,-0.114563,0.977905,0.09814,0.40292,-0.1015,261.095,-7.53234,5.78276
210,1459120932,2.04117,1.03928,8.65067,-0.134766,-0.180603,1.03918,0.11004,0.38066,-0.16352,260.733,-7.7745,5.94951
211,1459120933,0.605621,-1.27106,6.16837,-0.120667,-0.10791,1.0282,0.11648,0.38542,-0.1057,260.361,-7.59293,6.02562
212,1459120933,-3.37204,-0.919647,5.18143,-0.0668335,-0.105408,0.982239,0.12726,0.3808,-0.17486,259.972,-7.44973,5.81755
213,1459120933,1.55518,-2.73651,7.37213,-0.0996094,-0.151306,0.994019,0.14056,0.38234,-0.17752,259.558,-7.5695,5.80813
214,1459120933,1.42059,0.86731,7.14783,-0.126282,-0.164734,1.01385,0.10584,0.37562,-0.1757,259.242,-7.7377,5.93887
215,1459120933,-0.463562,-1.49536,5.32349,-0.0975342,-0.0824585,1.00458,0.14126,0.36176,-0.10556,258.845,-7.43471,5.89953
216,1459120934,-0.358887,-1.42807,6.74408,-0.0979614,-0.155151,1.01123,0.13986,0.39788,-0.17416,258.458,-7.5647,5.86268
217,1459120934,1.57761,-2.63184,8.77777,-0.110901,-0.165833,0.992432,0.14168,0.35742,-0.1197,258.078,-7.75558,5.91351
218,1459120934,0.553284,0.224304,6.56464,-0.116638,-0.145203,1.01642,0.17108,0.3878,-0.1442,257.631,-7.79349,5.97758
219,1459120934,-1.18881,-1.38321,4.82254,-0.0899658,-0.0838623,0.992065,0.17136,0.35574,-0.17794,257.195,-7.50232,5.899
220,1459120934,0.336456,-2.29538,5.98145,-0.0820923,-0.139954,0.988281,0.17696,0.33292,-0.1456,256.753,-7.55741,5.78572
221,1459120935,0.5159,-0.299072,6.89362,-0.126099,-0.17395,1.00531,0.19586,0.35378,-0.1736,256.274,-7.7852,5.92282
222,1459120935,1.68228,1.32339,6.34033,-0.118896,-0.109009,1.02808,0.17794,0.33558,-0.1701,255.848,-7.60855,5.99186
223,1459120935,-2.72156,-1.30844,5.00946,-0.0804443,-0.116028,0.972168,0.15918,0.32046,-0.15456,255.474,-7.53079,5.86965
224,1459120935,0.328979,-2.20566,5.45059,-0.0818481,-0.15332,0.988953,0.19824,0.33418,-0.10906,255.014,-7.65786,5.75729
225,1459120935,2.39258,2.04117,8.703,-0.143555,-0.175476,1.02911,0.17024,0.33026,-0.14826,254.629,-7.8659,5.98219
226,1459120936,0.672913,-0.508423,6.61697,-0.104736,-0.0956421,1.01746,0.2128,0.30156,-0.11032,254.146,-7.61435,5.97157
227,1459120936,-1.2561,-2.42996,5.31601,-0.0706787,-0.138489,0.987,0.23198,0.31458,-0.17402,253.626,-7.65107,5.78749
228,1459120936,1.4505,0.0224304,6.65436,-0.106018,-0.161804,0.999695,0.21728,0.30002,-0.18312,253.148,-7.80544,5.81403
229,1459120936,-0.0897217,0.328979,6.19827,-0.120789,-0.100403,1.02032,0.1883,0.33026,-0.17738,252.752,-7.58435,5.90941
230,1459120936,-1.65237,-0.792542,4.29916,-0.0725098,-0.127136,1.00836,0.23422,0.28028,-0.1792,252.245,-7.54441,5.72959
231,1459120937,-0.418701,-3.21503,5.7048,-0.0759888,-0.137024,0.992249,0.20286,0.27468,-0.1729,251.818,-7.57588,5.59634
232,1459120937,0.971985,0.740204,7.74597,-0.132996,-0.189941,1.00946,0.21798,0.27202,-0.1225,251.362,-7.88787,5.7889
233,1459120937,-0.157013,-1.65237,5.4805,-0.104431,-0.0788574,1.00592,0.23884,0.26054,-0.13762,250.86,-7.54889,5.80274
234,1459120937,-0.740204,-0.299072,6.44501,-0.0731201,-0.145996,0.999084,0.24374,0.29554,-0.17836,250.362,-7.62515,5.64218
235,1459120937,0.598145,-2.45239,7.37961,-0.0931396,-0.150757,0.977661,0.24234,0.27188,-0.13286,249.869,-7.73684,5.62264
236,1459120938,-0.254211,0.18692,8.03009,-0.136353,-0.169067,1.00531,0.2436,0.24752,-0.18284,249.373,-7.91923,5.83434
237,1459120938,-1.21872,-1.16638,4.41879,-0.0783691,-0.0982666,1.00275,0.24976,0.26446,-0.18522,248.874,-7.68781,5.69792
238,1459120938,-1.79443,-3.31223,5.86182,-0.0732422,-0.122925,0.970825,0.21196,0.23254,-0.17738,248.459,-7.64202,5.56368
239,1459120938,0.770111,0.949554,8.59085,-0.133118,-0.18634,0.998474,0.24402,0.26012,-0.11452,247.985,-7.93698,5.7674
240,1459120938,0.456085,0.037384,6.25061,-0.112427,-0.128113,1.02063,0.21658,0.23352,-0.19166,247.57,-7.85732,5.82034
241,1459120939,-2.15332,-1.84677,5.83939,-0.0733643,-0.123779,0.980408,0.24724,0.22288,-0.1225,247.085,-7.79246,5.66942
242,1459120939,0.396271,-1.79443,7.17026,-0.0889282,-0.138489,0.984497,0.25102,0.20216,-0.18732,246.589,-7.81367,5.61932
243,1459120939,1.15891,1.27853,7.62634,-0.123596,-0.166382,1.01129,0.2457,0.20314,-0.19194,246.11,-7.96906,5.75618
244,1459120939,-1.69724,-2.42996,4.8674,-0.101013,-0.0870972,0.98645,0.23268,0.19558,-0.19544,245.662,-7.68157,5.76514
245,1459120940,-1.772,-0.0897217,5.43564,-0.0736694,-0.129944,0.990784,0.25284,0.18788,-0.18732,245.169,-7.66073,5.61511
246,1459120940,2.25052,0.157013,7.43942,-0.12616,-0.173096,0.998535,0.22988,0.20426,-0.1799,244.74,-7.87955,5.77436
247,1459120940,2.24304,2.02621,7.58896,-0.145142,-0.158325,1.04443,0.21644,0.18326,-0.13286,244.336,-7.95686,5.99804
248,1459120940,-2.21313,-1.68228,4.41132,-0.076355,-0.102844,0.987244,0.2429,0.1638,-0.14532,243.865,-7.75931,5.84291
249,1459120940,-1.45798,-1.53275,5.09171,-0.069519,-0.133057,0.963196,0.24304,0.16884,-0.18816,243.4,-7.76954,5.67759
250,1459120941,2.11594,0.770111,7.01324,-0.117065,-0.174927,1.0271,0.23884,0.13552,-0.14196,242.929,-7.9652,5.76245
251,1459120941,0.179443,0.919647,5.3833,-0.123718,-0.0980225,1.02368,0.24262,0.1267,-0.2002,242.447,-7.71148,5.87797
252,1459120941,-2.53464,-1.45798,5.12161,-0.0557861,-0.121948,0.982239,0.23268,0.1372,-0.19978,241.997,-7.64927,5.62084
253,1459120941,0.276642,-1.98883,6.80389,-0.090271,-0.151367,0.982666,0.21616,0.1127,-0.19936,241.571,-7.75856,5.58422
254,1459120941,1.07666,1.13647,8.09738,-0.123413,-0.18866,0.99939,0.22988,0.11326,-0.12866,241.116,-8.05412,5.73027
255,1459120942,-0.239258,-2.08603,5.51041,-0.0983887,-0.0888062,0.992737,0.19306,0.1064,-0.19292,240.743,-7.76305,5.72328
256,1459120942,-1.10657,-1.81686,7.5441,-0.0814819,-0.13916,0.9776,0.21462,0.1428,-0.13748,240.346,-7.79631,5.6293
257,1459120942,0.979462,-1.57013,9.04694,-0.11438,-0.162842,1.00085,0.21532,0.09828,-0.19012,239.919,-7.94194,5.71886
258,1459120942,1.85425,-0.553284,6.78894,-0.109619,-0.10675,1.01312,0.21924,0.10738,-0.19474,239.491,-7.74707,5.76523
259,1459120942,-1.51031,0.0822449,5.56274,-0.0847168,-0.118958,1.00073,0.19418,0.0924,-0.20314,239.111,-7.65021,5.67249
260,1459120943,0.16449,-2.64679,6.5123,-0.0856934,-0.13855,0.989685,0.20916,0.07952,-0.2079,238.688,-7.68189,5.60075
261,1459120943,0.590668,1.29349,7.74597,-0.130249,-0.170837,1.01581,0.18732,0.10444,-0.20874,238.335,-7.87227,5.77468
262,1459120943,-1.07666,-1.68976,4.99451,-0.0982666,-0.0929565,1.00024,0.16114,0.0616,-0.1673,238.011,-7.61701,5.75829
263,1459120943,-0.590668,-2.84119,5.71976,-0.0775757,-0.141602,0.969421,0.18662,0.04662,-0.14462,237.614,-7.68457,5.64338
264,1459120943,0.336456,-0.0822449,6.89362,-0.103699,-0.160156,0.999512,0.14742,0.0707,-0.1715,237.329,-7.82731,5.67146
265,1459120944,0.643005,0.0897217,6.48987,-0.114929,-0.0952759,1.03308,0.175,0.1106,-0.14588,237.012,-7.5644,5.7414
266,1459120944,-0.650482,0.530853,6.25061,-0.0930786,-0.133606,0.993713,0.18424,0.06776,-0.21098,236.639,-7.57366,5.70263
267,1459120944,-0.194397,-1.89163,6.01135,-0.0872192,-0.141235,0.98407,0.15904,0.0833,-0.21672,236.338,-7.63227,5.63982
268,1459120944,0.770111,-0.284119,5.58517,-0.131653,-0.16095,1.00287,0.11816,0.05236,-0.20034,236.107,-7.78195,5.8251
269,1459120944,-0.366364,-0.276642,5.36087,-0.101196,-0.0913086,1.00391,0.15386,0.02324,-0.2086,235.764,-7.52347,5.81817
270,1459120945,-2.01874,-2.04117,5.2861,-0.0702515,-0.141968,0.962891,0.10528,0.04844,-0.19922,235.559,-7.60717,5.6594
271,1459120945,0.792542,-0.829926,6.69174,-0.100098,-0.165649,1.00226,0.12292,0.03542,-0.13944,235.299,-7.78674,5.66382
272,1459120945,0.882263,1.09161,5.6749,-0.118774,-0.107849,1.02032,0.1351,0.03906,-0.18788,235.012,-7.60825,5.76371
273,1459120945,-0.837402,-0.194397,4.83002,-0.088562,-0.107239,1.01648,0.12096,0.01232,-0.19838,234.733,-7.44761,5.68411
274,1459120945,0.508423,-2.1907,6.65436,-0.0869141,-0.144653,0.987671,0.11214,0.0322,-0.19138,234.493,-7.53523,5.61941
275,1459120946,-1.00189,0.18692,7.62634,-0.0979004,-0.142273,0.995911,0.11018,0.00868,-0.20146,234.234,-7.59462,5.6189
276,1459120946,1.23367,-0.411224,6.15341,-0.111511,-0.101685,1.02576,0.0854,0.01624,-0.20412,234.041,-7.39732,5.67892
277,1459120946,-0.665436,-1.36826,5.02441,-0.0782471,-0.129822,0.998352,0.0595,0.00406,-0.1708,233.898,-7.39848,5.55972
278,1459120946,-0.523376,-1.84677,6.01883,-0.0936279,-0.152771,0.989624,0.084,0.02464,-0.14574,233.716,-7.53518,5.54437
279,1459120947,0.814972,0.246735,6.22818,-0.118408,-0.12793,1.01447,0.0287,0.02058,-0.17066,233.666,-7.49997,5.65733
280,1459120947,-0.269165,-0.568237,5.71976,-0.105286,-0.100586,1.00183,0.0756,0.03752,-0.14532,233.516,-7.32384,5.69156
281,1459120947,-1.83929,-5.14404,3.90289,-0.083313,-0.111389,0.987488,0.05908,0.00742,-0.21168,233.374,-7.23631,5.60587
282,1459120947,-0.814972,-1.72714,6.33286,-0.0879517,-0.156372,0.982239,0.04578,0.01008,-0.1988,233.269,-7.41502,5.55778
283,1459120947,0.0897217,-0.201874,6.88614,-0.123535,-0.10907,1.005,0.02212,0.00504,-0.19922,233.217,-7.29246,5.70399
284,1459120948,0.0149536,-0.88974,6.55716,-0.0961914,-0.130005,1.01062,0.03556,0.0056,-0.20132,233.131,-7.29627,5.67703
285,1459120948,-1.33835,-2.99072,5.3833,-0.0811768,-0.132019,0.97644,-0.01484,0.03276,-0.20174,233.208,-7.33581,5.58667
286,1459120948,-0.687866,-0.463562,7.31979,-0.108398,-0.140869,0.991943,-0.00112,-0.00798,-0.12782,233.202,-7.41023,5.65137
287,1459120948,2.69913,0.882263,6.81885,-0.122131,-0.124268,1.04303,0.007,0.00742,-0.17402,233.192,-7.34617,5.7585
288,1459120948,-0.755157,-0.201874,6.87866,-0.105103,-0.142761,0.99353,0.00182,0.00728,-0.2044,233.195,-7.42877,5.78632
289,1459120949,-0.957031,-3.28232,5.26367,-0.0843506,-0.133301,0.980347,-0.00518,0.02786,-0.16772,233.243,-7.45965,5.70118
290,1459120949,0.530853,0.433655,6.40762,-0.117371,-0.137695,1.00739,-0.01092,0.03556,-0.20384,233.315,-7.49228,5.7965
291,1459120949,0.628052,0.508423,5.37582,-0.106079,-0.0959473,1.02698,-0.02646,0.02926,-0.19474,233.424,-7.27241,5.80683
292,1459120949,-1.37573,-1.65985,5.51041,-0.0757446,-0.130798,0.998291,-0.05992,0.028,-0.17122,233.626,-7.29155,5.6609
293,1459120949,0.119629,0.284119,6.99829,-0.103027,-0.169556,0.996948,-0.03346,0.007,-0.1323,233.73,-7.52779,5.68473
294,1459120950,1.17386,-0.874786,6.04126,-0.122559,-0.0888672,1.00977,-0.056,0.0105,-0.17864,233.904,-7.27726,5.80946
295,1459120950,-0.388794,0.343933,5.89172,-0.0948486,-0.13031,1.0127,-0.0364,0.0217,-0.1372,234.036,-7.28282,5.76319
296,1459120950,-0.261688,-1.72714,4.53842,-0.0839844,-0.123047,0.99939,-0.05362,0.01904,-0.20384,234.217,-7.25655,5.66771
297,1459120950,-0.157013,-0.0598145,7.26746,-0.116028,-0.172668,0.984497,-0.05936,0.01778,-0.20342,234.416,-7.52283,5.77153
298,1459120950,-0.127106,-3.68607,3.4169,-0.137695,-0.0782471,0.956604,-0.0931,0.02212,-0.19516,234.723,-7.251,6.00478
299,1459120951,-1.23367,0.0971985,6.52725,-0.0960083,-0.135498,0.989746,-0.0714,0.03794,-0.19278,234.988,-7.30517,5.95868
300,1459120951,-0.650482,-2.87857,6.91605,-0.0928955,-0.135864,0.985901,-0.10318,0.0364,-0.196,235.351,-7.35885,5.90167
301,1459120951,-1.42059,0.37384,6.74408,-0.0914917,-0.129517,0.985046,-0.11256,0.04298,-0.11914,235.755,-7.37189,5.84273
302,1459120951,-0.0299072,-0.411224,6.6394,-0.100281,-0.107117,1.00787,-0.07952,0.03668,-0.1575,236.051,-7.24005,5.82647
303,1459120951,1.8692,-2.30286,6.40762,-0.0808716,-0.128357,1.00092,-0.10332,0.06062,-0.196,236.455,-7.24685,5.70537
304,1459120952,-1.21124,-1.15891,7.82822,-0.103699,-0.168457,0.989502,-0.10612,0.0441,-0.15778,236.851,-7.48824,5.73295
305,1459120952,1.12152,-1.06918,7.61139,-0.116394,-0.0900269,1.0174,-0.11102,0.05376,-0.18606,237.278,-7.24133,5.814
306,1459120952,-0.112152,0.104675,6.66183,-0.101929,-0.131104,1.01526,-0.12222,0.05558,-0.19306,237.749,-7.25319,5.80578
307,1459120952,-0.239258,-2.98325,5.89172,-0.0896606,-0.139282,0.980408,-0.16324,0.04844,-0.18396,238.353,-7.33517,5.74877
308,1459120952,-0.16449,-1.41312,6.82632,-0.0970459,-0.157227,0.971985,-0.12138,0.0763,-0.11578,238.852,-7.51698,5.74417
309,1459120953,1.2561,-0.0971985,6.11603,-0.125183,-0.106934,1.0152,-0.1757,0.09254,-0.17178,239.558,-7.36426,5.87536
310,1459120953,-0.575714,-0.829926,5.14404,-0.0985107,-0.134399,1.00317,-0.14476,0.06258,-0.12026,240.129,-7.39107,5.84853
311,1459120953,-0.904694,-1.94397,6.45248,-0.103394,-0.164673,0.991333,-0.14714,0.10108,-0.1869,240.752,-7.5949,5.85905
312,1459120953,1.18881,0.0149536,5.71976,-0.130615,-0.11261,1.01447,-0.14308,0.1267,-0.17654,241.388,-7.46714,6.00953
313,1459120953,-0.254211,-0.224304,3.97766,-0.115051,-0.122375,0.998962,-0.1841,0.10948,-0.17192,242.154,-7.41887,6.06564
314,1459120954,-0.770111,-1.91406,3.86551,-0.0797119,-0.13092,0.969543,-0.15512,0.10332,-0.18284,242.811,-7.44531,5.93295
315,1459120954,1.54022,1.07666,5.59265,-0.136841,-0.16571,1.00745,-0.18172,0.1169,-0.18578,243.578,-7.63767,6.11566
316,1459120954,-0.284119,0.171967,3.35709,-0.111023,-0.086792,1.0307,-0.18382,0.10976,-0.11102,244.347,-7.34814,6.11899
317,1459120954,-0.650482,-0.657959,4.62814,-0.0834961,-0.125671,0.998535,-0.15316,0.1512,-0.14112,245.036,-7.33069,5.98557
318,1459120955,-0.224304,-2.30286,7.2226,-0.0933228,-0.149902,0.984192,-0.15526,0.13272,-0.17654,245.715,-7.4621,5.92955
319,1459120955,0.418701,1.19629,5.86929,-0.119019,-0.137695,1.01624,-0.16212,0.13188,-0.14882,246.417,-7.48794,6.00588
320,1459120955,-1.76453,-0.142059,5.43564,-0.101379,-0.0892944,1.00653,-0.1617,0.14322,-0.17038,247.123,-7.24584,5.98031
321,1459120955,-0.433655,-3.2225,6.01883,-0.09021,-0.135986,0.972229,-0.17528,0.17878,-0.17374,247.897,-7.31574,5.91422
322,1459120955,-1.19629,-0.37384,6.90109,-0.0967407,-0.160583,0.996582,-0.20524,0.16758,-0.14014,248.771,-7.50003,5.87732
323,1459120956,-0.0523376,-0.747681,5.802,-0.104858,-0.0951538,1.00159,-0.16058,0.19404,-0.1778,249.481,-7.29283,5.88728
324,1459120956,0.127106,-2.59445,5.71976,-0.093811,-0.145935,0.972351,-0.20706,0.16016,-0.1526,250.343,-7.41451,5.85054
325,1459120956,0.127106,-1.92154,6.62445,-0.113831,-0.1651,0.998474,-0.17122,0.19768,-0.10584,251.077,-7.61334,5.91611
326,1459120956,0.179443,-0.0747681,6.16837,-0.112366,-0.109497,0.998047,-0.16128,0.21196,-0.17192,251.767,-7.47821,5.967
327,1459120956,-0.635529,0.149536,6.38519,-0.104004,-0.134216,1.01031,-0.1785,0.19334,-0.17542,252.506,-7.48722,5.95793
328,1459120957,-0.837402,-3.40942,3.63373,-0.085022,-0.132751,0.993896,-0.17682,0.2002,-0.17318,253.231,-7.49924,5.85161
329,1459120957,-0.717773,0.104675,5.83939,-0.113464,-0.152893,0.991272,-0.17948,0.21826,-0.17234,253.958,-7.62581,5.91915
330,1459120957,1.13647,0.201874,4.5459,-0.118896,-0.0955811,1.02283,-0.20706,0.2121,-0.16268,254.775,-7.39269,5.99205
331,1459120957,-1.48041,-2.86362,4.8674,-0.0769653,-0.123169,0.989075,-0.19432,0.24458,-0.0987,255.533,-7.36355,5.83956
332,1459120957,0.239258,-1.24863,4.19449,-0.0793457,-0.144653,0.999268,-0.16352,0.22582,-0.14714,256.16,-7.45113,5.70973
333,1459120958,2.46735,2.09351,5.24872,-0.120239,-0.102051,1.0379,-0.18242,0.24752,-0.10416,256.845,-7.26169,5.8029
334,1459120958,-0.717773,-0.0897217,3.96271,-0.093811,-0.114746,1.00885,-0.16072,0.24332,-0.14182,257.436,-7.18408,5.75362
335,1459120958,-0.5159,-1.65985,3.87299,-0.0755615,-0.129517,0.990112,-0.1666,0.25648,-0.16814,258.034,-7.21063,5.61655
336,1459120958,0.321503,0.650482,6.11603,-0.105164,-0.174561,0.996277,-0.16968,0.24542,-0.1624,258.631,-7.48374,5.65728
337,1459120958,1.89911,0.740204,5.20386,-0.133789,-0.104858,1.04156,-0.18102,0.26936,-0.12936,259.253,-7.30455,5.83002
338,1459120959,-1.98883,-0.568237,2.90848,-0.069519,-0.117188,0.985168,-0.16548,0.28294,-0.1764,259.801,-7.25344,5.65433
339,1459120959,-1.04675,-2.32529,3.98514,-0.0692139,-0.125977,0.969604,-0.1827,0.26446,-0.13468,260.4,-7.26792,5.50229
340,1459120959,1.62994,2.74399,5.98145,-0.128845,-0.154358,1.03461,-0.14182,0.27622,-0.10122,260.838,-7.39382,5.66736
341,1459120959,0.299072,-0.70282,4.29169,-0.0903931,-0.0881958,1.00488,-0.14392,0.29652,-0.16604,261.267,-7.15669,5.6146
342,1459120959,-0.358887,-0.306549,6.46744,-0.0705566,-0.144165,1.00061,-0.12992,0.2933,-0.16982,261.637,-7.26084,5.45724
343,1459120960,5.84686,3.11783,5.61508,-0.100098,-0.183411,1.05029,-0.14504,0.28406,-0.17682,262.052,-7.5381,5.45587
344,1459120960,-0.852356,-1.68228,5.69733,-0.114746,-0.113831,0.994934,-0.13286,0.29064,-0.1645,262.413,-7.43834,5.56707
345,1459120960,-2.03369,-1.21872,5.01694,-0.0880127,-0.100342,0.987244,-0.16632,0.29582,-0.1652,262.875,-7.27819,5.52066
346,1459120960,-0.523376,-1.21124,4.37393,-0.0758667,-0.125366,0.987244,-0.14462,0.29246,-0.09702,263.254,-7.27414,5.40997
347,1459120960,0.037384,-1.30844,5.95154,-0.108337,-0.170288,0.998901,-0.11508,0.33348,-0.12936,263.509,-7.51461,5.48778
348,1459120961,-0.605621,-1.87668,5.81696,-0.106934,-0.0870361,0.998962,-0.14336,0.31262,-0.09758,263.858,-7.26306,5.54985
349,1459120961,-0.388794,-0.276642,6.54968,-0.10144,-0.128113,1.00592,-0.11956,0.31976,-0.12782,264.117,-7.26255,5.57079
350,1459120961,0.643005,-2.59445,5.26367,-0.085144,-0.126038,0.997864,-0.11074,0.3577,-0.16562,264.325,-7.2562,5.50177
351,1459120961,-0.485992,0.657959,5.84686,-0.112427,-0.173828,0.996521,-0.0966,0.34496,-0.15778,264.488,-7.52033,5.59496
352,1459120962,-0.500946,-0.590668,4.09729,-0.106018,-0.0744629,1.01514,-0.13412,0.32942,-0.14742,264.769,-7.18569,5.63215
353,1459120962,-1.02432,0.231781,4.21692,-0.0894775,-0.136475,0.988403,-0.10206,0.35056,-0.16912,264.934,-7.25248,5.58684
354,1459120962,0.613098,-3.24493,5.52536,-0.0873413,-0.143127,0.988403,-0.13048,0.34202,-0.13748,265.186,-7.35023,5.53381
355,1459120962,-2.51968,-0.852356,5.42068,-0.104614,-0.146179,0.977722,-0.08176,0.36624,-0.09002,265.271,-7.46349,5.59005
356,1459120962,-0.433655,-0.650482,4.48608,-0.113525,-0.0924072,1.00897,-0.07574,0.3808,-0.15484,265.329,-7.23912,5.67396
357,1459120963,-0.635529,-1.30096,3.49915,-0.0654907,-0.138977,0.990662,-0.07448,0.35504,-0.1638,265.393,-7.31333,5.48669
358,1459120963,2.81128,-0.777588,5.71976,-0.118469,-0.173462,1.02325,-0.06636,0.37086,-0.15512,265.424,-7.55057,5.60116
359,1459120963,1.16638,0.441132,5.64499,-0.134521,-0.120911,1.02783,-0.06482,0.36358,-0.16002,265.453,-7.46453,5.79182
360,1459120963,-4.99451,-0.35141,1.6748,-0.0804443,-0.0790405,1.04169,-0.07406,0.36358,-0.16002,265.508,-7.14304,5.6498
361,1459120963,0.770111,-2.50473,5.21881,-0.081543,-0.137939,0.973328,-0.08064,0.35532,-0.105,265.584,-7.23272,5.56643
362,1459120964,0.523376,0.814972,6.66931,-0.120728,-0.163391,0.997925,-0.0427,0.38598,-0.11662,265.536,-7.43915,5.69918
363,1459120964,-0.874786,-0.56076,3.59634,-0.104736,-0.0866089,1.00696,-0.04928,0.36358,-0.0966,265.519,-7.18713,5.72317
364,1459120964,-1.84677,-1.62247,3.06549,-0.0626221,-0.122742,0.962036,-0.02324,0.38836,-0.12474,265.418,-7.19519,5.53129
365,1459120964,3.07297,0.568237,6.05621,-0.116516,-0.188538,1.02594,-0.01764,0.37786,-0.16478,265.309,-7.52709,5.6285
366,1459120964,3.47672,2.54211,4.80759,-0.117188,-0.119629,1.04462,-0.00868,0.41524,-0.15792,265.163,-7.42411,5.70877
367,1459120965,-2.07855,-0.231781,3.68607,-0.0705566,-0.108337,1.01074,-0.03682,0.36862,-0.1379,265.117,-7.29331,5.53695
368,1459120965,3.37952,-2.258,7.19269,-0.0864258,-0.136902,1.00262,0.00462,0.3836,-0.16016,264.954,-7.34137,5.4762
369,1459120965,1.46545,1.09909,7.21512,-0.129456,-0.167175,1.04236,-0.02842,0.3703,-0.13986,264.888,-7.52478,5.64213
370,1459120965,-1.80939,-1.63742,4.56833,-0.0960083,-0.069458,1.00031,0.0182,0.38234,-0.08694,264.696,-7.17471,5.62629
371,1459120965,-2.08603,-1.47293,6.21323,-0.0689087,-0.132629,0.984375,0.0238,0.39774,-0.15414,264.489,-7.22354,5.46802
372,1459120966,2.10098,-2.6767,7.28241,-0.104919,-0.15979,1.00922,0.03066,0.39256,-0.09828,264.27,-7.402,5.51489
373,1459120966,-0.837402,-1.58508,7.2525,-0.131531,-0.160095,0.990173,0.0406,0.42462,-0.15876,264.021,-7.57828,5.71773
374,1459120966,-2.55707,-2.83371,5.2562,-0.101135,-0.105896,0.976501,0.04998,0.41048,-0.16604,263.759,-7.44331,5.73676
375,1459120966,-1.129,-2.00378,5.2861,-0.0732422,-0.131653,0.992859,0.02856,0.4158,-0.15414,263.557,-7.45422,5.58659
376,1459120966,1.94397,1.13647,7.43195,-0.126099,-0.17511,1.02039,0.03206,0.40964,-0.11242,263.353,-7.68769,5.73528
377,1459120967,-1.68976,-3.99261,4.9646,-0.117432,-0.0859375,0.956421,0.04494,0.4074,-0.1568,263.123,-7.44431,5.85666
378,1459120967,-1.15891,-0.403748,5.74966,-0.0840454,-0.138,0.992554,0.0532,0.38892,-0.1134,262.883,-7.49121,5.7557
379,1459120967,-0.119629,-2.00378,5.00946,-0.0900879,-0.143005,0.999939,0.08512,0.42042,-0.1169,262.561,-7.55618,5.69489
380,1459120967,3.05801,3.0954,5.84686,-0.145508,-0.159119,1.04156,0.08694,0.38556,-0.16548,262.251,-7.67384,5.93043
381,1459120967,-2.27295,-1.68228,3.5141,-0.0722046,-0.097168,0.991882,0.09786,0.40908,-0.1617,261.916,-7.46876,5.75588
382,1459120968,1.36078,-2.47482,6.16089,-0.0737915,-0.146973,1.00165,0.11788,0.40684,-0.17206,261.54,-7.55682,5.60194
383,1459120968,1.60751,0.882263,8.32169,-0.147156,-0.196838,1.02924,0.1036,0.38738,-0.16534,261.212,-7.89463,5.86291
384,1459120968,0.403748,-0.957031,4.30664,-0.107361,-0.0820312,1.0199,0.0847,0.36372,-0.1554,260.941,-7.56241,5.87775
385,1459120968,-3.20007,0.0897217,4.2543,-0.0809937,-0.126038,0.967285,0.12082,0.37646,-0.09716,260.586,-7.54903,5.77256
386,1459120969,1.27106,-2.63931,4.52347,-0.072998,-0.139648,0.998352,0.13174,0.38416,-0.15526,260.211,-7.59031,5.61437
387,1459120969,1.48788,1.77948,7.33475,-0.142639,-0.171875,1.02197,0.1372,0.3864,-0.09716,259.831,-7.79042,5.85274
388,1459120969,-1.06171,-1.6748,3.34213,-0.0899658,-0.0842896,0.997253,0.14042,0.38682,-0.16198,259.452,-7.4978,5.78343
389,1459120969,-3.11783,-3.08792,3.78326,-0.0535278,-0.126892,0.9375,0.14672,0.39914,-0.17164,259.065,-7.5176,5.54755
390,1459120969,0.0523376,-0.426178,5.24872,-0.0877686,-0.165466,0.998047,0.13482,0.38766,-0.16604,258.715,-7.70828,5.49533
391,1459120970,1.05423,0.35141,7.09549,-0.131531,-0.111328,1.02637,0.13398,0.36988,-0.10318,258.375,-7.55291,5.68148
392,1459120970,-1.06171,-0.411224,6.46744,-0.0947876,-0.138489,1.01147,0.15596,0.392,-0.17164,257.99,-7.57752,5.64837
393,1459120970,-0.411224,-3.11783,6.35529,-0.0722656,-0.137756,0.98938,0.14798,0.35168,-0.13608,257.634,-7.6121,5.5031
394,1459120970,0.919647,0.0598145,10.0189,-0.126892,-0.185913,1.00104,0.18018,0.3542,-0.13076,257.209,-7.90541,5.67594
395,1459120970,0.687866,-1.00937,7.05811,-0.127258,-0.12085,1.00909,0.18564,0.35854,-0.17444,256.78,-7.79713,5.82878
396,1459120971,-2.03369,-1.66733,5.49545,-0.0771484,-0.12738,0.98053,0.1911,0.35602,-0.17402,256.346,-7.75835,5.69845
397,1459120971,1.28601,-0.463562,6.72913,-0.0986938,-0.156067,0.989685,0.20118,0.32452,-0.1743,255.897,-7.87801,5.69809
398,1459120971,1.31592,0.635529,6.72913,-0.14386,-0.176025,1.01562,0.217,0.31808,-0.1771,255.418,-8.07753,5.93932
399,1459120971,-2.9982,-1.80191,3.87299,-0.0807495,-0.106079,0.980103,0.18144,0.32774,-0.1547,255.027,-7.89156,5.81876
400,1459120971,-2.0636,-2.22809,7.17026,-0.0736694,-0.127625,0.947937,0.21322,0.29596,-0.1064,254.569,-7.87021,5.68773
401,1459120972,1.83182,0.88974,7.88803,-0.131409,-0.180603,1.00635,0.21322,0.33782,-0.17248,254.122,-8.10476,5.86563
402,1459120972,-0.0822449,0.16449,5.51788,-0.129456,-0.117126,1.02399,0.22666,0.29652,-0.10612,253.647,-7.94307,6.00354
403,1459120972,-3.82065,-2.14584,4.46365,-0.06073,-0.119385,0.967041,0.23156,0.2905,-0.17682,253.167,-7.85517,5.76987
404,1459120972,1.97388,-1.80191,6.76651,-0.0965576,-0.140137,1.0127,0.22988,0.30478,-0.19362,252.699,-7.85755,5.737
405,1459120972,2.94586,3.13278,8.38898,-0.154785,-0.193604,1.03296,0.21056,0.30996,-0.18578,252.282,-8.14448,6.02631
406,1459120973,-1.62247,-1.32339,3.60382,-0.0927734,-0.0875854,0.992493,0.21392,0.27762,-0.13272,251.858,-7.83818,5.95821
407,1459120973,-3.15521,-1.31592,4.29916,-0.0581665,-0.132385,0.961975,0.2037,0.27216,-0.1869,251.461,-7.83794,5.71759
408,1459120973,2.22809,-0.583191,7.74597,-0.117493,-0.161072,1.00067,0.21868,0.26166,-0.126,251.033,-7.9696,5.81614
409,1459120973,0.986938,2.24304,6.4151,-0.131042,-0.132996,1.0343,0.24276,0.24836,-0.14196,250.555,-7.90321,5.96183
410,1459120973,-2.56454,-2.17575,5.2562,-0.0709229,-0.121277,0.973572,0.2485,0.27832,-0.19068,250.076,-7.82498,5.78698
411,1459120974,1.65237,-0.859833,7.92542,-0.101807,-0.169434,1.02777,0.25116,0.28588,-0.1428,249.601,-7.98343,5.77362
412,1459120974,-1.56265,1.17386,7.03568,-0.143127,-0.191956,1.00726,0.25256,0.22148,-0.18928,249.11,-8.26784,6.00747
413,1459120974,0.829926,-0.70282,5.6076,-0.101562,-0.0864258,1.02783,0.24318,0.22288,-0.1925,248.645,-7.91566,5.97019
414,1459120974,-2.78137,-1.2262,5.21133,-0.0675049,-0.132324,0.968811,0.21672,0.21406,-0.18466,248.239,-7.90228,5.7785
415,1459120974,1.28601,-1.75705,5.64499,-0.086731,-0.134766,0.987671,0.2499,0.23786,-0.12236,247.773,-7.8892,5.70343
416,1459120975,0.949554,1.21872,7.6712,-0.135925,-0.17865,1.0238,0.22036,0.20818,-0.17192,247.365,-8.0956,5.89415
417,1459120975,-2.2879,-2.27295,6.1235,-0.0776978,-0.104065,0.994873,0.25298,0.18928,-0.12054,246.882,-7.88532,5.75242
418,1459120975,-1.74957,-1.60751,7.07306,-0.0849609,-0.14386,0.968933,0.25256,0.18074,-0.18032,246.401,-7.93977,5.6805
419,1459120975,1.51031,1.43555,9.08432,-0.125488,-0.1745,1.00647,0.24906,0.1687,-0.19348,245.926,-8.1318,5.82466
420,1459120975,0.605621,-1.0318,6.19827,-0.117126,-0.0993042,1.01678,0.22666,0.17556,-0.18522,245.506,-7.87351,5.90064
421,1459120976,-4.05243,-2.84119,6.07864,-0.0699463,-0.119812,0.953064,0.25144,0.1974,-0.19782,245.044,-7.8058,5.73798
422,1459120976,-0.269165,0.433655,5.12161,-0.0692749,-0.131165,0.97406,0.23618,0.16968,-0.19754,244.607,-7.79241,5.57462
423,1459120976,0.0747681,0.201874,7.72354,-0.128967,-0.1698,1.00549,0.20944,0.13902,-0.14966,244.216,-7.97442,5.75048
424,1459120976,0.396271,-0.0822449,6.06369,-0.111389,-0.0967407,1.01801,0.24276,0.17192,-0.14854,243.771,-7.71572,5.80096
425,1459120977,-2.31033,-0.70282,3.99261,-0.0825806,-0.13446,0.975037,0.23562,0.16072,-0.19642,243.338,-7.72905,5.70701
426,1459120977,1.57013,-1.40564,6.39267,-0.108948,-0.163452,1.00195,0.23254,0.16072,-0.14812,242.915,-7.88422,5.75724
427,1459120977,1.29349,1.85425,7.67868,-0.140747,-0.169556,1.02051,0.2352,0.15022,-0.19824,242.484,-8.04321,5.97232
428,1459120977,-0.792542,-1.34583,4.35898,-0.0919189,-0.0873413,1.00183,0.22946,0.10472,-0.20356,242.041,-7.73786,5.89915
429,1459120977,-2.14584,-1.16638,4.7403,-0.0610962,-0.126221,0.982422,0.18578,0.10374,-0.19768,241.694,-7.69683,5.66921
430,1459120978,1.60751,-0.837402,5.72723,-0.105225,-0.15332,1.00867,0.22162,0.1029,-0.1295,241.269,-7.79266,5.69816
431,1459120978,0.583191,0.672913,6.52725,-0.12439,-0.147644,1.01514,0.1841,0.11326,-0.19572,240.933,-7.84172,5.82922
432,1459120978,-0.0897217,-0.231781,5.50293,-0.0952148,-0.109192,1.00269,0.20986,0.08624,-0.13062,240.525,-7.67913,5.78866
433,1459120978,-1.51031,-2.0636,6.15341,-0.0714722,-0.133301,0.951233,0.21602,0.08834,-0.189,240.105,-7.70764,5.64637
434,1459120978,2.75894,0.321503,5.86182,-0.143738,-0.170593,1.02136,0.21294,0.08372,-0.20202,239.689,-7.89006,5.88944
435,1459120979,0.553284,-0.0523376,5.71228,-0.108459,-0.109863,1.01007,0.19796,0.06566,-0.20944,239.295,-7.72051,5.91365
436,1459120979,-0.72525,-0.299072,5.81696,-0.0942993,-0.115479,1.00922,0.19404,0.07,-0.20216,238.912,-7.6004,5.85562
437,1459120979,-0.5159,-3.4169,5.76462,-0.069458,-0.131714,0.980835,0.16254,0.08372,-0.19796,238.609,-7.60512,5.67869
438,1459120979,-0.0149536,0.127106,7.03568,-0.115417,-0.152832,1.00049,0.15008,0.03486,-0.1631,238.299,-7.71362,5.76922
439,1459120979,1.48041,1.33835,4.9646,-0.108459,-0.103455,1.0528,0.1869,0.05138,-0.15638,237.917,-7.49409,5.78104
440,1459120980,-1.68228,-1.59256,5.57022,-0.074585,-0.133301,0.987854,0.17038,0.06902,-0.21154,237.585,-7.51293,5.6371
441,1459120980,-1.09909,-2.9982,6.16089,-0.0869751,-0.140991,0.97406,0.16324,0.0581,-0.15092,237.261,-7.58352,5.58504
442,1459120980,0.523376,0.508423,7.32727,-0.101929,-0.13031,1.00476,0.15456,0.03696,-0.20328,236.94,-7.56405,5.6059
443,1459120980,0.934601,-0.0224304,6.13098,-0.108887,-0.104065,1.02399,0.14364,0.07798,-0.2107,236.676,-7.38472,5.65333
444,1459120980,-0.717773,-2.8038,6.06369,-0.081543,-0.129333,0.984375,0.1064,0.0343,-0.2065,236.461,-7.39459,5.56314
445,1459120981,-1.24863,-0.314026,6.27304,-0.0950317,-0.16333,0.974304,0.14378,0.0224,-0.133,236.149,-7.60276,5.5639
446,1459120981,1.60751,0.0822449,5.07675,-0.115723,-0.0886841,1.02435,0.0861,0.0189,-0.19838,235.965,-7.33228,5.65428
447,1459120981,-0.276642,0.112152,5.04684,-0.0950928,-0.1203,1.00653,0.11494,0.01358,-0.13048,235.709,-7.28039,5.62843
448,1459120981,-1.18134,-2.87857,4.77768,-0.0778809,-0.127441,0.976807,0.10822,0.0091,-0.19376,235.463,-7.29535,5.52395
449,1459120981,0.254211,1.98135,7.13287,-0.111389,-0.151794,1.00415,0.1169,0.01988,-0.21266,235.205,-7.42643,5.60504
450,1459120982,0.91217,-0.149536,5.49545,-0.114746,-0.0854492,1.02545,0.09044,0.01428,-0.2079,235.003,-7.15514,5.68494
451,1459120982,-1.14395,-0.224304,6.01883,-0.0910034,-0.125305,0.998596,0.10066,0.03934,-0.20006,234.8,-7.15484,5.63733
452,1459120982,0.418701,-1.88416,6.08612,-0.0861206,-0.143616,0.992065,0.0728,-0.00378,-0.20524,234.621,-7.26239,5.57038
453,1459120982,0.239258,-0.157013,6.07117,-0.127441,-0.147095,1.00262,0.04872,-0.02086,-0.15498,234.482,-7.37123,5.73851
454,1459120982,1.30844,-0.254211,5.45059,-0.106323,-0.09198,1.01898,0.0868,0.00322,-0.15134,234.273,-7.14718,5.76071
455,1459120983,-0.388794,-0.18692,7.13287,-0.0864868,-0.140625,1.00641,0.07126,0.00504,-0.20384,234.102,-7.22831,5.67563
456,1459120983,-2.21313,-3.87299,5.6749,-0.120422,-0.131042,0.983093,0.05712,-0.00322,-0.14196,233.957,-7.26411,5.80437
457,1459120983,0.979462,-0.343933,7.70111,-0.111389,-0.151367,1.00031,0.04914,-0.00378,-0.20328,233.829,-7.39848,5.85935
458,1459120983,0.0971985,-0.553284,7.04315,-0.10614,-0.104797,1.01257,0.04354,-0.00574,-0.20006,233.713,-7.24838,5.87195
459,1459120984,-1.36826,-2.2879,6.40762,-0.0852051,-0.141785,0.987305,-0.00448,-0.00168,-0.19544,233.723,-7.33971,5.77938
460,1459120984,0.0598145,-1.77948,7.45438,-0.110474,-0.170105,0.989319,0.01092,-0.01736,-0.12712,233.676,-7.58022,5.83806
461,1459120984,0.919647,0.418701,5.77957,-0.12207,-0.120544,1.01154,-0.02786,0.00392,-0.19698,233.753,-7.50106,5.94368
462,1459120984,-0.269165,-1.14395,3.95523,-0.0919189,-0.103516,1.00854,0.01134,-0.00448,-0.13258,233.718,-7.33633,5.86963
463,1459120984,-1.27106,-3.12531,4.72534,-0.069519,-0.11676,0.971985,0.00504,-0.00504,-0.18214,233.699,-7.28902,5.69694
464,1459120985,0.56076,0.418701,6.71417,-0.107605,-0.162964,1.00177,-0.01484,0.0091,-0.19894,233.749,-7.48551,5.74049
465,1459120985,1.46545,0.575714,5.56274,-0.115845,-0.100342,1.02112,-0.02366,0.02072,-0.19656,233.837,-7.2951,5.81525
466,1459120985,-1.06171,-0.613098,5.2861,-0.0841064,-0.140503,0.992493,-0.028,0.0203,-0.19656,233.937,-7.37088,5.71899
467,1459120985,-0.657959,-2.89352,5.21133,-0.0792236,-0.128662,0.979004,-0.04144,0.01554,-0.20566,234.07,-7.38227,5.612
468,1459120985,-0.18692,1.33835,6.79642,-0.111816,-0.155029,0.996399,-0.07518,0.02198,-0.1526,234.307,-7.52866,5.69108
469,1459120986,1.47293,0.0299072,5.74219,-0.116577,-0.0936279,1.02991,-0.04074,0.00448,-0.13874,234.428,-7.28955,5.77007
470,1459120986,-2.21313,-0.852356,4.26926,-0.0667725,-0.120667,0.975281,-0.05166,0.01526,-0.19838,234.594,-7.26646,5.58951
471,1459120986,-0.643005,-2.5795,5.05432,-0.088623,-0.145203,0.988098,-0.06202,0.03724,-0.1323,234.818,-7.37502,5.54355
472,1459120986,0.919647,0.986938,5.50293,-0.113953,-0.13501,1.01276,-0.0637,0.03094,-0.19684,235.041,-7.39716,5.6325
473,1459120986,-1.30844,-2.84119,4.71786,-0.112854,-0.0914307,0.964539,-0.05306,0.03682,-0.2023,235.242,-7.20582,5.73352
474,1459120987,-1.03928,-1.70471,4.3515,-0.0700684,-0.13092,0.989136,-0.09156,0.0294,-0.19138,235.552,-7.23904,5.56674
475,1459120987,0.448608,-1.82434,5.86182,-0.0962524,-0.160461,0.986877,-0.10066,0.02982,-0.11928,235.893,-7.43808,5.56712
476,1459120987,1.19629,0.508423,6.99081,-0.12085,-0.128235,1.01666,-0.11424,0.03766,-0.18214,236.289,-7.41267,5.69101
477,1459120987,0.859833,-0.657959,6.45996,-0.111633,-0.107361,1.01843,-0.11956,0.028,-0.119,236.694,-7.27078,5.74862
478,1459120987,-0.755157,-2.78885,5.82443,-0.0910645,-0.134583,0.992371,-0.09058,0.05194,-0.15792,237.04,-7.31581,5.69839
479,1459120988,0.0598145,-0.897217,7.40952,-0.085022,-0.150208,0.994934,-0.10668,0.07196,-0.1855,237.463,-7.44275,5.6173
480,1459120988,0.366364,-0.800018,5.43564,-0.124817,-0.0840454,1.00708,-0.11718,0.06174,-0.18396,237.911,-7.17454,5.76368
481,1459120988,-1.08414,-0.0523376,6.7366,-0.0997925,-0.138,1.00287,-0.10752,0.08988,-0.18998,238.361,-7.24093,5.75554
482,1459120988,-0.35141,-2.82623,6.46744,-0.0950928,-0.143982,0.990601,-0.1155,0.08176,-0.19362,238.831,-7.34327,5.72854
483,1459120988,-1.80191,-2.37015,5.6076,-0.102295,-0.17041,0.961365,-0.14812,0.077,-0.1708,239.407,-7.60674,5.76193
484,1459120989,0.70282,-0.657959,4.80011,-0.124207,-0.0991211,1.02441,-0.13454,0.07462,-0.11578,239.939,-7.39395,5.88039
485,1459120989,-2.01874,-0.964508,5.4805,-0.0879517,-0.134094,0.977051,-0.1372,0.08358,-0.18662,240.491,-7.43528,5.80817
486,1459120989,-1.2262,-3.49915,6.57211,-0.0957031,-0.137695,0.977478,-0.1372,0.07308,-0.11564,241.036,-7.49271,5.7869
487,1459120989,0.142059,-0.209351,7.94785,-0.113708,-0.125793,1.00342,-0.14532,0.12222,-0.17444,241.66,-7.45772,5.85541
488,1459120989,1.34583,0.411224,7.31979,-0.124878,-0.122986,1.02875,-0.15372,0.10598,-0.1708,242.297,-7.39179,5.96547
489,1459120990,-0.86731,-2.87109,5.42816,-0.090332,-0.137329,0.988647,-0.16828,0.10766,-0.17164,242.989,-7.44304,5.8917
490,1459120990,-1.51031,-0.635529,5.74966,-0.10376,-0.159851,0.982056,-0.19012,0.12964,-0.13244,243.779,-7.62151,5.90547
491,1459120990,1.28601,-1.79443,4.97955,-0.127136,-0.0967407,1.01855,-0.1904,0.16002,-0.17332,244.592,-7.39829,6.02917
492,1459120990,-0.104675,0.448608,4.1272,-0.0992432,-0.124939,1.02258,-0.19362,0.1407,-0.11158,245.399,-7.35413,5.97954
493,1459120990,0.665436,-2.7739,4.02252,-0.0737915,-0.140686,0.987183,-0.16128,0.13006,-0.1218,246.079,-7.42901,5.81152
494,1459120991,2.96829,2.65427,4.94217,-0.136047,-0.176941,1.04376,-0.17164,0.147,-0.17598,246.806,-7.65818,5.97995
495,1459120991,-0.0747681,-0.852356,4.7702,-0.112244,-0.102539,0.99762,-0.1729,0.1386,-0.17682,247.53,-7.48077,6.0237
496,1459120991,-0.628052,-2.51968,4.51599,-0.0772705,-0.134644,0.983459,-0.16996,0.14896,-0.17402,248.245,-7.51174,5.8736
497,1459120991,0.194397,-0.792542,6.02631,-0.104004,-0.168518,0.995483,-0.1638,0.15792,-0.17836,248.937,-7.72134,5.88264
498,1459120992,0.949554,-0.388794,5.32349,-0.117249,-0.0944214,1.0199,-0.19082,0.1505,-0.15806,249.722,-7.47502,5.95143
499,1459120992,-1.63742,-0.358887,4.88983,-0.0944214,-0.141174,0.998901,-0.1722,0.18186,-0.09954,250.445,-7.53184,5.8965
500,1459120992,0.239258,-1.76453,5.80948,-0.0805054,-0.143433,0.981689,-0.16842,0.18942,-0.161,251.148,-7.60861,5.77809
501,1459120992,0.0149536,1.07666,6.38519,-0.108521,-0.112488,1.01587,-0.16772,0.19824,-0.09702,251.844,-7.47811,5.8105
502,1459120992,0.0598145,-0.598145,5.48798,-0.0963745,-0.111145,1.00873,-0.16926,0.22988,-0.16016,252.544,-7.35857,5.775
503,1459120993,-0.441132,-0.91217,5.21133,-0.0841064,-0.150146,1.00244,-0.1673,0.21532,-0.1638,253.221,-7.47487,5.67723
504,1459120993,0.874786,-0.239258,6.05621,-0.111877,-0.167786,1.01691,-0.18858,0.2422,-0.16478,253.97,-7.6676,5.73818
505,1459120993,0.0523376,-0.179443,4.79263,-0.111572,-0.109009,1.01532,-0.19432,0.22498,-0.11144,254.723,-7.51252,5.79206
506,1459120993,-0.971985,-0.343933,5.98892,-0.0961304,-0.116638,0.998291,-0.19138,0.2156,-0.15848,255.452,-7.42832,5.76307
507,1459120993,0.687866,-2.43744,6.2207,-0.0884399,-0.136597,0.995605,-0.20258,0.20608,-0.11396,256.208,-7.46644,5.695
508,1459120994,-1.30844,0.149536,6.69922,-0.101685,-0.171692,0.97876,-0.16744,0.24808,-0.10346,256.825,-7.71065,5.71811
509,1459120994,0.919647,-0.568237,5.92163,-0.119385,-0.0858765,1.01306,-0.16422,0.26726,-0.17542,257.416,-7.42251,5.81966
510,1459120994,-0.904694,-0.366364,5.37582,-0.0913086,-0.13092,0.995972,-0.1708,0.25704,-0.16772,258.018,-7.42908,5.76188
511,1459120994,0.201874,-4.23187,4.11224,-0.105957,-0.133728,0.988831,-0.16212,0.2793,-0.1596,258.572,-7.45607,5.79692
512,1459120994,0.934601,0.785065,5.1889,-0.126648,-0.163269,1.01251,-0.16632,0.25522,-0.17038,259.132,-7.62901,5.93198
513,1459120995,-0.695343,-0.18692,4.6431,-0.100403,-0.106201,0.997009,-0.19026,0.26264,-0.14882,259.761,-7.47522,5.91391
514,1459120995,0.523376,-0.755157,4.88235,-0.079834,-0.136414,1.00629,-0.1561,0.28784,-0.07924,260.252,-7.49983,5.77576
515,1459120995,0.411224,-0.0822449,5.33844,-0.0991821,-0.171143,0.99884,-0.14896,0.2954,-0.14574,260.704,-7.72271,5.76529
516,1459120995,0.328979,-1.05423,4.49356,-0.114441,-0.122864,0.992493,-0.15638,0.29456,-0.0875,261.169,-7.65675,5.84598
517,1459120995,-2.02621,-0.366364,3.9328,-0.085083,-0.123901,0.977112,-0.1449,0.2989,-0.1442,261.583,-7.61469,5.76097
518,1459120996,0.620575,-2.84119,4.31412,-0.0844727,-0.143738,0.985535,-0.13804,0.3129,-0.15778,261.958,-7.68234,5.67586
519,1459120996,1.21124,0.874786,4.94965,-0.115906,-0.173279,1.01227,-0.17038,0.28658,-0.16142,262.438,-7.88927,5.76279
520,1459120996,-0.590668,-1.00189,3.23746,-0.110107,-0.0900879,1.00671,-0.17024,0.28616,-0.10332,262.906,-7.61109,5.81109
521,1459120996,-2.40753,-1.47293,3.08044,-0.0678101,-0.113037,0.965759,-0.1659,0.31388,-0.15596,263.338,-7.52055,5.63748
522,1459120996,1.82434,-0.0822449,5.43564,-0.107239,-0.171082,0.990967,-0.16058,0.33082,-0.0966,263.735,-7.74819,5.69117
523,1459120997,0.343933,0.777588,5.21133,-0.140564,-0.154907,1.01947,-0.11326,0.30982,-0.09828,263.977,-7.83948,5.91264
524,1459120997,-3.28979,-2.3851,3.1926,-0.0656738,-0.0787964,0.972473,-0.1141,0.32214,-0.16114,264.211,-7.52796,5.713
525,1459120997,0.112152,-2.0636,5.05432,-0.0828857,-0.143616,0.981506,-0.11634,0.32088,-0.1575,264.446,-7.60676,5.62562
526,1459120997,1.3533,-0.964508,7.55157,-0.124817,-0.181335,1.01825,-0.10892,0.3367,-0.15596,264.644,-7.86283,5.76522
527,1459120997,-1.45798,-2.34024,4.00757,-0.0992432,-0.0957642,0.989075,-0.10402,0.33446,-0.15568,264.824,-7.63214,5.76171
528,1459120998,-2.93091,-1.88416,4.36646,-0.0738525,-0.119812,0.951721,-0.13622,0.32788,-0.14854,265.099,-7.58831,5.63478
529,1459120998,2.07108,-1.48041,6.15341,-0.0997314,-0.153931,1.00146,-0.09926,0.34538,-0.08918,265.247,-7.70467,5.64006
530,1459120998,0.478516,-0.508423,5.76462,-0.12384,-0.152893,1.00854,-0.12362,0.3591,-0.1512,265.458,-7.79777,5.77842
531,1459120998,-2.32529,-1.32339,4.11972,-0.0784302,-0.0802002,0.994324,-0.0917,0.34076,-0.0798,265.577,-7.48085,5.65176
532,1459120999,-1.04675,-1.73462,5.8992,-0.0834351,-0.128723,0.965271,-0.07238,0.35532,-0.14224,265.629,-7.49205,5.58253
533,1459120999,0.299072,-0.00747681,6.54221,-0.128052,-0.169128,1.00555,-0.06566,0.37548,-0.1526,265.651,-7.70127,5.75269
534,1459120999,-0.747681,-1.09161,3.79074,-0.0941772,-0.0784302,1.00177,-0.07896,0.3612,-0.14616,265.718,-7.37798,5.71418
535,1459120999,-1.89163,-1.93649,4.1571,-0.0610962,-0.126892,0.9776,-0.05432,0.39676,-0.15428,265.696,-7.37971,5.50406
536,1459120999,0.882263,-1.44302,6.37024,-0.118164,-0.174683,0.998718,-0.08064,0.36778,-0.15372,265.762,-7.63693,5.62944
537,1459121000,0.762634,1.38321,5.48798,-0.135376,-0.133301,1.02057,-0.07952,0.36792,-0.09352,265.823,-7.6169,5.82765
538,1459121000,-1.03928,-0.171967,4.50104,-0.0973511,-0.098999,1.00391,-0.03514,0.37044,-0.10234,265.758,-7.41762,5.79855
539,1459121000,2.05612,-1.80939,5.57022,-0.090271,-0.142456,1.01666,-0.03066,0.40446,-0.15666,265.667,-7.4746,5.72485
540,1459121000,1.772,0.897217,7.58896,-0.153992,-0.193665,1.01056,-0.02506,0.41062,-0.10122,265.562,-7.81853,6.02369
541,1459121000,1.51779,-0.0149536,4.55338,-0.106628,-0.0845337,1.02014,-0.01764,0.38626,-0.15946,265.449,-7.50643,6.01792
542,1459121001,-2.73651,-0.56076,4.74777,-0.0724487,-0.142334,0.978027,-0.01232,0.41636,-0.15526,265.314,-7.58229,5.84401
543,1459121001,0.411224,-1.02432,5.14404,-0.0949097,-0.163574,0.98114,-0.03696,0.37142,-0.15498,265.265,-7.76832,5.81267
544,1459121001,0.740204,0.306549,5.02441,-0.137451,-0.127747,1.02069,-0.00588,0.39242,-0.08666,265.127,-7.70363,6.00289
545,1459121001,-0.5159,0.0448608,3.80569,-0.0797119,-0.101257,1.00555,-0.03122,0.39886,-0.1568,265.057,-7.50799,5.8554
546,1459121001,-0.650482,-2.79633,3.58887,-0.0599365,-0.121704,0.959167,0.00812,0.37576,-0.08848,264.895,-7.48137,5.63659
547,1459121002,1.18881,0.396271,6.32538,-0.124451,-0.196655,1.01434,0.0252,0.4018,-0.15148,264.683,-7.83917,5.77494
548,1459121002,-0.157013,-1.03928,4.82254,-0.106384,-0.0883179,1.00293,0.03276,0.39578,-0.16618,264.46,-7.55873,5.80308
549,1459121002,-0.807495,0.104675,5.95901,-0.0876465,-0.134827,0.998657,0.0259,0.427,-0.15708,264.249,-7.57175,5.72442
550,1459121002,-0.0598145,-3.48419,4.84497,-0.059082,-0.138611,0.980164,0.04662,0.40138,-0.1659,264,-7.61875,5.50138
551,1459121002,0.448608,0.18692,7.52914,-0.125732,-0.18512,1.00897,0.05096,0.38682,-0.16198,263.751,-7.90149,5.66378
552,1459121003,0.545807,-1.08414,5.98892,-0.101929,-0.098877,1.00592,0.02492,0.37016,-0.11522,263.577,-7.67209,5.67609
553,1459121003,-1.02432,-0.216827,5.71976,-0.0777588,-0.149841,1.00354,0.07532,0.3948,-0.1008,263.275,-7.75462,5.55123
554,1459121003,1.14395,-2.10098,7.09549,-0.0953979,-0.160339,0.996765,0.0742,0.3822,-0.15554,262.986,-7.89312,5.54282
555,1459121003,0.328979,0.0822449,6.5123,-0.126648,-0.144531,1.02118,0.07784,0.42658,-0.10374,262.684,-7.90972,5.69897
556,1459121003,-2.35519,-0.979462,4.97208,-0.0783691,-0.117126,0.986572,0.09016,0.38052,-0.16646,262.37,-7.79756,5.58497
557,1459121004,-0.104675,-2.26547,5.6749,-0.0767822,-0.122375,0.983765,0.1001,0.40768,-0.16632,262.033,-7.72801,5.47455
558,1459121004,1.53275,0.575714,7.46185,-0.131836,-0.188965,1.01978,0.06622,0.36848,-0.16716,261.793,-8.01228,5.66803
559,1459121004,-0.957031,-1.36078,4.3515,-0.106262,-0.0942993,1.0152,0.10332,0.38066,-0.09576,261.467,-7.73954,5.6992
560,1459121004,-2.69165,-1.6449,4.89731,-0.065918,-0.121155,0.977905,0.09702,0.37856,-0.16366,261.163,-7.67339,5.51933
561,1459121004,0.366364,-2.25052,5.93658,-0.0985107,-0.15033,1.00201,0.11662,0.37366,-0.09254,260.82,-7.75965,5.52891
562,1459121005,1.99631,1.68228,6.61697,-0.148743,-0.173157,1.02594,0.12628,0.38164,-0.15876,260.46,-7.94677,5.80874
563,1459121005,-0.0598145,-1.04675,3.56644,-0.111938,-0.0827026,1.02246,0.13006,0.40152,-0.16716,260.096,-7.61059,5.85348
564,1459121005,-1.50284,-0.687866,3.58887,-0.0640259,-0.121338,0.990417,0.12348,0.42756,-0.16828,259.752,-7.54885,5.64133
565,1459121005,1.32339,-1.98883,6.27304,-0.0994263,-0.155823,0.989624,0.15232,0.39858,-0.1603,259.353,-7.68754,5.6508
566,1459121006,2.24304,2.88605,7.33475,-0.132385,-0.159058,1.03925,0.14028,0.40208,-0.16912,258.989,-7.79261,5.81756
567,1459121006,-2.90848,-2.79633,4.23935,-0.0839233,-0.0814819,0.974365,0.12222,0.40026,-0.12852,258.675,-7.50138,5.73069
568,1459121006,0.0747681,-2.78885,6.15341,-0.0686646,-0.148254,0.990295,0.1715,0.3563,-0.11494,258.258,-7.60181,5.55659
569,1459121006,1.62994,-0.194397,6.23566,-0.130432,-0.192139,1.01447,0.16716,0.34538,-0.17654,257.859,-7.92026,5.73625
570,1459121006,0.366364,-0.284119,4.32907,-0.117065,-0.117188,1.02032,0.18298,0.36442,-0.11424,257.431,-7.78161,5.81855
571,1459121007,-2.81876,-0.0224304,4.70291,-0.074646,-0.104614,0.968811,0.18578,0.34608,-0.1813,257.004,-7.62541,5.68206
572,1459121007,0.119629,-2.17575,7.45438,-0.0790405,-0.144226,0.97406,0.1897,0.34706,-0.17542,256.576,-7.70333,5.58042
573,1459121007,2.2879,3.76083,7.13287,-0.15332,-0.186157,1.05627,0.15876,0.32592,-0.1729,256.223,-7.94579,5.86363
574,1459121007,-0.411224,-1.47293,4.57581,-0.0839844,-0.0790405,1.00842,0.20146,0.34328,-0.1757,255.782,-7.60016,5.75307
575,1459121007,-0.284119,-2.59445,5.65994,-0.060791,-0.139587,0.986145,0.182,0.33936,-0.17122,255.391,-7.6451,5.5348
576,1459121008,0.882263,-1.55518,6.64688,-0.111084,-0.141113,0.996826,0.2009,0.3647,-0.11382,254.967,-7.68616,5.61688
577,1459121008,0.88974,0.314026,7.88055,-0.137939,-0.151917,1.0177,0.2254,0.32648,-0.16996,254.493,-7.76784,5.83084
578,1459121008,-1.73462,-2.01874,4.59076,-0.081604,-0.09729,0.992615,0.22554,0.32368,-0.18536,254.026,-7.55386,5.71903
579,1459121008,-0.142059,-2.15332,5.84686,-0.0812988,-0.143982,0.968933,0.2282,0.30058,-0.17444,253.558,-7.64116,5.62965
580,1459121008,1.75705,1.06171,8.08243,-0.136108,-0.192322,1.01984,0.23254,0.2926,-0.1778,253.085,-7.95295,5.83125
581,1459121009,-0.0971985,-0.0224304,3.91037,-0.0953979,-0.0963135,1.01917,0.1995,0.34664,-0.1806,252.7,-7.69465,5.78213
582,1459121009,-2.63931,-1.62994,6.01883,-0.0753784,-0.126404,0.976685,0.21028,0.2583,-0.13972,252.282,-7.66339,5.64874
583,1459121009,2.54211,-2.258,6.5123,-0.0960693,-0.141357,1.0036,0.23562,0.31836,-0.14098,251.826,-7.69892,5.63061
584,1459121009,2.02621,1.49536,7.88055,-0.151733,-0.178772,1.0307,0.22008,0.30632,-0.14056,251.407,-7.91989,5.91382
585,1459121009,-0.388794,-0.5159,3.47672,-0.0957642,-0.0818481,1.01801,0.2408,0.29372,-0.14336,250.948,-7.58536,5.85919
586,1459121010,-3.58887,-1.29349,5.98892,-0.0654297,-0.130188,0.960205,0.25116,0.25158,-0.18956,250.462,-7.59841,5.67153
587,1459121010,2.00378,-0.964508,7.91046,-0.109985,-0.157959,1.00171,0.24948,0.26348,-0.18732,249.989,-7.73523,5.73108
588,1459121010,0.56076,0.829926,4.2543,-0.130676,-0.134399,1.02075,0.22596,0.27062,-0.1827,249.573,-7.71138,5.89075
589,1459121010,-2.29538,-0.269165,4.31412,-0.0662231,-0.10321,0.978333,0.24696,0.25326,-0.19334,249.113,-7.54672,5.69391
590,1459121010,-0.665436,-2.2879,6.99829,-0.0726929,-0.126404,0.970032,0.21686,0.20328,-0.18508,248.707,-7.53481,5.5572
591,1459121011,1.16638,0.530853,8.87497,-0.135071,-0.178528,1.03497,0.24836,0.19768,-0.12656,248.235,-7.76887,5.75202
592,1459121011,0.306549,-0.613098,5.69733,-0.108643,-0.0925293,1.02228,0.25284,0.21896,-0.19544,247.764,-7.50551,5.78407
593,1459121011,-2.25052,-1.04675,5.82443,-0.0733032,-0.132568,0.977295,0.25326,0.19348,-0.1995,247.287,-7.52695,5.6384
594,1459121011,0.755157,-2.3851,7.08054,-0.0892334,-0.140381,0.989807,0.25326,0.2226,-0.19068,246.826,-7.58101,5.59021
595,1459121011,1.52527,1.70471,7.89551,-0.116882,-0.158447,1.03754,0.25564,0.18186,-0.19292,246.347,-7.69523,5.67691
596,1459121012,-0.575714,-1.24863,4.90479,-0.0903931,-0.0877686,1.00061,0.23744,0.16464,-0.19488,245.904,-7.42896,5.62558
597,1459121012,-1.39069,-1.69724,6.0936,-0.0754395,-0.139038,0.997864,0.23142,0.1869,-0.14014,245.485,-7.47912,5.49621
598,1459121012,0.0747681,-1.55518,5.80948,-0.0875244,-0.161987,1.00171,0.24556,0.14868,-0.1694,245.023,-7.65032,5.44601
599,1459121012,1.02432,0.134583,6.60202,-0.122253,-0.111633,1.01599,0.22568,0.1302,-0.13944,244.597,-7.51102,5.5896
600,1459121012,-1.62247,-0.964508,6.57959,-0.0892334,-0.132629,0.992188,0.24374,0.14588,-0.17206,244.141,-7.52119,5.54505
601,1459121013,-0.545807,-2.55707,5.77957,-0.0846558,-0.140442,0.987305,0.2408,0.16352,-0.1932,243.702,-7.57794,5.48158
602,1459121013,0.142059,1.29349,7.04315,-0.114807,-0.15448,1.01324,0.24248,0.14714,-0.203,243.254,-7.68846,5.58109
603,1459121013,0.00747681,-0.852356,5.4805,-0.103516,-0.0924683,1.00684,0.19754,0.15582,-0.1778,242.91,-7.44447,5.61012
604,1459121013,-1.16638,-1.41312,6.01135,-0.076355,-0.131958,0.990601,0.23128,0.1491,-0.20664,242.492,-7.45864,5.49139
605,1459121014,-0.620575,-1.30096,6.30295,-0.0960693,-0.150452,0.979553,0.19068,0.10808,-0.16954,242.14,-7.5838,5.50217
606,1459121014,1.04675,0.194397,6.13846,-0.116821,-0.116943,1.02197,0.23324,0.10332,-0.13944,241.694,-7.47629,5.60631
607,1459121014,-2.2879,-1.47293,4.92722,-0.0913696,-0.116516,0.969727,0.21924,0.11368,-0.20286,241.286,-7.41568,5.58459
608,1459121014,-0.171967,-2.19818,5.2861,-0.0797729,-0.136108,0.985901,0.22176,0.10948,-0.2051,240.87,-7.45967,5.48994
609,1459121014,0.852356,0.822449,6.99829,-0.118958,-0.167725,1.00555,0.20916,0.11144,-0.20328,240.485,-7.66312,5.61683
610,1459121015,-1.48788,-1.47293,5.29358,-0.10553,-0.0856323,1.01294,0.2072,0.11214,-0.19782,240.106,-7.37769,5.65038
611,1459121015,-0.829926,-0.299072,6.06369,-0.0911255,-0.134583,1.00647,0.16842,0.11298,-0.20216,239.813,-7.40171,5.60243
612,1459121015,-0.680389,-1.83182,5.79453,-0.0939331,-0.147827,0.978943,0.1911,0.07532,-0.13664,239.445,-7.51829,5.59051
613,1459121015,1.84677,0.72525,5.77209,-0.111755,-0.106201,1.0387,0.15582,0.0588,-0.203,239.143,-7.34467,5.64761
614,1459121015,-4.673,-2.20566,3.81317,-0.0549316,-0.103699,0.949219,0.1687,0.0721,-0.1302,238.822,-7.23919,5.4259
615,1459121016,-0.979462,-2.13089,5.56274,-0.0753174,-0.131958,0.977966,0.1799,0.08918,-0.19096,238.489,-7.28301,5.32559
616,1459121016,0.747681,1.5477,5.86182,-0.10376,-0.148315,1.00989,0.1799,0.06524,-0.20706,238.138,-7.39189,5.38043
617,1459121016,0.0149536,0.179443,4.83002,-0.11499,-0.0986328,1.01837,0.16156,0.03402,-0.20426,237.804,-7.20288,5.48889
618,1459121016,-2.29538,-1.11404,5.09171,-0.0830688,-0.117371,0.986267,0.16674,0.035,-0.20748,237.458,-7.16175,5.42226
619,1459121016,0.366364,-2.17575,5.73471,-0.0873413,-0.134033,0.993713,0.17598,0.0637,-0.20664,237.113,-7.21363,5.3825
620,1459121017,0.500946,0.500946,6.46744,-0.116089,-0.162781,1.00153,0.12138,0.04396,-0.17892,236.875,-7.41716,5.50617
621,1459121017,-0.134583,-0.643005,4.53094,-0.100769,-0.0812378,1.01337,0.1491,0.01288,-0.1477,236.548,-7.13115,5.52368
622,1459121017,-2.04117,-1.13647,5.11414,-0.0722046,-0.129822,0.986389,0.14084,0.01008,-0.20622,236.235,-7.16742,5.39175
623,1459121017,0.91217,-3.37204,5.95901,-0.0869751,-0.131653,0.999939,0.13174,0.01638,-0.15134,235.948,-7.20081,5.34963
624,1459121017,2.74399,2.45987,7.55905,-0.130615,-0.153137,1.02771,0.1218,0.01316,-0.21518,235.679,-7.332,5.54464
625,1459121018,1.99631,-0.254211,5.23376,-0.109436,-0.0948486,1.03314,0.11844,0.01414,-0.20118,235.417,-7.11813,5.59632
626,1459121018,-0.829926,-1.20377,5.6749,-0.0875854,-0.13446,0.997864,0.07588,-0.00028,-0.2023,235.239,-7.1735,5.53868
627,1459121018,-0.284119,-1.83929,6.1908,-0.0971069,-0.146667,0.984619,0.09268,0.00924,-0.1316,235.03,-7.30153,5.54791
628,1459121018,-0.403748,0.171967,6.31042,-0.112854,-0.131042,0.996826,0.06734,0.02646,-0.2037,234.896,-7.32021,5.63877
629,1459121018,2.54959,0.545807,5.27863,-0.114014,-0.0952148,1.04315,0.07714,-0.01666,-0.13944,234.696,-7.10264,5.70095
630,1459121019,-3.01315,-2.73651,4.8674,-0.0721436,-0.129028,0.967285,0.08792,0.0343,-0.18872,234.518,-7.15052,5.5626
631,1459121019,-0.0822449,-0.553284,6.13098,-0.0930786,-0.170288,0.98584,0.07756,0,-0.20566,234.331,-7.4133,5.54594
632,1459121019,2.14584,1.84677,6.06369,-0.113037,-0.101562,1.03235,0.06888,0.02072,-0.20622,234.184,-7.22924,5.61834
633,1459121019,-0.86731,0.994415,4.92722,-0.090332,-0.113159,1.02051,0.06832,0.00378,-0.2002,234.02,-7.13782,5.56153
634,1459121019,-0.822449,-2.39258,4.38889,-0.0778198,-0.135193,0.979919,0.0644,0.00406,-0.20384,233.865,-7.20804,5.46188
635,1459121020,2.07855,3.30475,6.38519,-0.12085,-0.155945,1.01099,0.0098,0.01064,-0.15554,233.852,-7.36584,5.59869
636,1459121020,0.717773,0.0747681,5.7048,-0.117981,-0.0999756,1.01343,0.04214,0.0028,-0.13398,233.749,-7.19165,5.70398
637,1459121020,-0.919647,-0.575714,5.88425,-0.0829468,-0.130554,0.998596,0.03626,0.03486,-0.20398,233.695,-7.21721,5.60904
638,1459121020,0.231781,-1.772,5.30853,-0.0825806,-0.136475,0.989624,0.0252,-0.01092,-0.1484,233.619,-7.27995,5.5263
639,1459121021,1.40564,0.934601,6.45248,-0.12384,-0.146118,1.01788,0.02226,0.02758,-0.2051,233.592,-7.37027,5.66965
640,1459121021,-0.16449,-1.19629,5.07675,-0.109253,-0.0963135,0.99646,0.01232,0.00196,-0.2114,233.562,-7.18718,5.72805
641,1459121021,-1.06171,-1.33835,5.33096,-0.0675659,-0.135132,1.00763,-0.02786,0.01232,-0.18774,233.649,-7.23252,5.5386
642,1459121021,-0.381317,-2.42249,6.67679,-0.0990601,-0.148193,0.984863,-0.00994,-0.00084,-0.1365,233.675,-7.36312,5.55876
643,1459121021,-0.16449,0.171967,6.46744,-0.114441,-0.129333,1.00037,-0.0469,-0.00574,-0.20426,233.794,-7.36348,5.65554
644,1459121022,-0.747681,-0.426178,5.57022,-0.0922241,-0.100708,1.0116,-0.02772,0.02072,-0.12866,233.893,-7.19467,5.61053
645,1459121022,-0.523376,-2.7066,5.22629,-0.0774536,-0.119751,0.986816,-0.02296,0.01512,-0.1862,233.974,-7.16752,5.50003
646,1459121022,1.81686,0.216827,7.01324,-0.111938,-0.172791,1.00079,-0.035,0.00644,-0.19544,234.078,-7.43185,5.58833
647,1459121022,0.254211,-1.37573,6.20575,-0.109131,-0.0908813,1.00098,-0.05292,0.0133,-0.1939,234.242,-7.20836,5.65177
648,1459121022,-1.45798,-1.86172,5.44312,-0.0709229,-0.130493,0.979065,-0.04522,0.03752,-0.20034,234.415,-7.24598,5.50421
649,1459121023,-0.037384,-1.92902,6.23566,-0.0958862,-0.156738,0.991272,-0.06384,0.0427,-0.20314,234.648,-7.41937,5.50628
650,1459121023,-0.403748,-0.814972,7.18521,-0.112793,-0.133789,0.993042,-0.09324,0.01218,-0.16716,234.933,-7.44464,5.60337
651,1459121023,0.583191,0.037384,6.23566,-0.113342,-0.11499,1.01855,-0.06076,0.0224,-0.13636,235.138,-7.34259,5.6795
652,1459121023,-0.822449,-2.94586,5.11414,-0.0847778,-0.148621,0.989746,-0.08344,0.02842,-0.1981,235.419,-7.46154,5.60192
653,1459121023,0.426178,0.942078,6.51978,-0.106506,-0.15802,0.98999,-0.0847,0.02716,-0.13062,235.706,-7.6216,5.6554
654,1459121024,2.19818,1.33087,4.83002,-0.129578,-0.110352,1.03619,-0.09618,0.03906,-0.19474,236.045,-7.46248,5.80811
655,1459121024,-1.80191,-0.209351,4.30664,-0.0822754,-0.115601,0.992249,-0.09296,0.03584,-0.18606,236.373,-7.38157,5.70237
656,1459121024,0.179443,-1.62247,5.10666,-0.0826416,-0.135254,0.991882,-0.12754,0.05474,-0.18606,236.835,-7.41964,5.60928
657,1459121024,1.19629,2.00378,7.30484,-0.111816,-0.145325,1.02161,-0.12418,0.03724,-0.12082,237.27,-7.48871,5.67429
658,1459121024,0.448608,-0.396271,5.75714,-0.112427,-0.092041,1.01154,-0.15204,0.05544,-0.18032,237.82,-7.25875,5.74172
659,1459121025,-2.901,-2.48978,5.64499,-0.0789795,-0.13092,0.96991,-0.13286,0.04284,-0.11648,238.299,-7.30038,5.63648
660,1459121025,-1.0318,-1.58508,4.41132,-0.0822144,-0.149902,0.975159,-0.12362,0.06104,-0.16198,238.772,-7.44152,5.55665
661,1459121025,2.31033,2.37762,5.82443,-0.125305,-0.125,1.04449,-0.11592,0.09072,-0.1897,239.254,-7.37727,5.69082
662,1459121025,-0.179443,-0.343933,6.19827,-0.0994263,-0.101501,1.00427,-0.13622,0.0882,-0.18424,239.804,-7.21681,5.68713
663,1459121025,0.112152,-2.85614,6.78894,-0.0761108,-0.12207,0.997253,-0.12894,0.098,-0.19166,240.341,-7.19311,5.55569
664,1459121026,-2.37015,-1.4505,5.52536,-0.0841675,-0.149475,0.971252,-0.1463,0.11466,-0.18424,240.956,-7.34496,5.4971
665,1459121026,1.76453,-0.314026,6.05621,-0.117371,-0.0946655,1.03473,-0.1652,0.09814,-0.1624,241.621,-7.12716,5.59786
666,1459121026,-0.695343,-0.493469,5.39078,-0.0929565,-0.123352,0.998962,-0.14476,0.10234,-0.12124,242.221,-7.1184,5.56979
667,1459121026,-1.18134,-2.40753,5.86182,-0.0840454,-0.147034,0.985291,-0.15288,0.11424,-0.19138,242.861,-7.25365,5.50147
668,1459121026,-0.710297,0.927124,6.75903,-0.104492,-0.150391,1.00153,-0.15302,0.13314,-0.11326,243.518,-7.38277,5.54704
669,1459121027,1.07666,0.18692,5.26367,-0.110291,-0.0842896,1.04547,-0.14588,0.13384,-0.18312,244.149,-7.09563,5.5965
670,1459121027,0.0598145,-1.23367,5.05432,-0.0953369,-0.134827,1.0108,-0.16142,0.1274,-0.18158,244.829,-7.14614,5.57555
671,1459121027,-0.583191,-2.66922,6.25809,-0.0870972,-0.138428,0.980347,-0.19642,0.1491,-0.18928,245.65,-7.2334,5.52686
672,1459121027,-1.60751,-0.844879,6.04874,-0.110291,-0.11792,0.985046,-0.17934,0.14322,-0.11676,246.401,-7.19338,5.61175
673,1459121027,0.426178,-0.620575,6.48239,-0.118408,-0.108582,1.01227,-0.20076,0.1953,-0.18242,247.26,-7.08544,5.719
674,1459121028,-0.837402,-2.05612,5.03189,-0.0914917,-0.124756,0.995911,-0.1799,0.1449,-0.112,248.006,-7.09088,5.67229
675,1459121028,-1.0318,0.261688,4.82254,-0.0977783,-0.168884,0.974915,-0.1708,0.18032,-0.15078,248.733,-7.35962,5.67765
676,1459121028,1.05423,-0.0971985,4.71786,-0.12262,-0.0925293,1.01056,-0.1729,0.18942,-0.16954,249.464,-7.14543,5.80328
677,1459121028,-0.732727,0.127106,5.50293,-0.104187,-0.13147,0.993835,-0.18424,0.1995,-0.17976,250.233,-7.18426,5.82132
678,1459121029,-0.35141,-2.48978,4.2244,-0.0914917,-0.123352,0.984741,-0.17262,0.19838,-0.17164,250.95,-7.17988,5.77072
679,1459121029,0.53833,1.66733,5.78705,-0.119385,-0.160522,1.01031,-0.18676,0.19432,-0.17192,251.707,-7.36747,5.86879
680,1459121029,0.777588,-0.194397,4.79263,-0.110168,-0.0952759,1.01221,-0.20748,0.18774,-0.12362,252.529,-7.16686,5.9035
681,1459121029,-0.680389,0.0523376,4.26178,-0.0891724,-0.128357,1.00476,-0.17122,0.20104,-0.10304,253.212,-7.17822,5.82011
682,1459121029,-0.0822449,-2.50473,4.02252,-0.0943604,-0.140503,0.995911,-0.16548,0.21406,-0.16842,253.865,-7.26319,5.77956
683,1459121030,-0.037384,0.231781,4.26178,-0.11792,-0.133667,1.00659,-0.16632,0.22862,-0.098,254.514,-7.29347,5.8704
684,1459121030,-0.224304,-0.553284,4.45618,-0.102417,-0.0935059,1.00818,-0.16506,0.22904,-0.16926,255.146,-7.09346,5.86337
685,1459121030,-0.0523376,-1.62247,5.66742,-0.081665,-0.137634,0.991699,-0.16422,0.21462,-0.16814,255.763,-7.17365,5.74904
686,1459121030,-0.396271,-3.11783,4.39636,-0.100098,-0.150452,0.985291,-0.20748,0.23968,-0.16366,256.526,-7.32285,5.75415
687,1459121030,-0.112152,-1.15891,4.62814,-0.107605,-0.110474,0.993286,-0.1834,0.24206,-0.08946,257.187,-7.22591,5.79683
688,1459121031,-0.142059,-0.194397,6.16089,-0.112,-0.122253,1.00909,-0.20202,0.24402,-0.16912,257.902,-7.19382,5.85103
689,1459121031,0.35141,-2.33276,5.51788,-0.0897827,-0.141602,0.998413,-0.18354,0.23464,-0.0966,258.537,-7.28172,5.77994
690,1459121031,0.471039,0.800018,5.44312,-0.105225,-0.160095,1.00269,-0.14826,0.266,-0.14084,259.031,-7.46192,5.8011
691,1459121031,0.598145,-0.358887,3.50662,-0.106323,-0.0928955,1.0116,-0.15274,0.25718,-0.16296,259.53,-7.23898,5.8212
692,1459121031,-1.48788,-0.949554,5.05432,-0.0863037,-0.140076,0.973145,-0.16632,0.29134,-0.16142,260.059,-7.33197,5.74787
693,1459121032,0.732727,-1.24115,4.2244,-0.0874634,-0.155212,0.994324,-0.15134,0.31262,-0.16086,260.518,-7.48596,5.67611
694,1459121032,1.81686,1.4505,4.98703,-0.128418,-0.143555,1.0401,-0.16114,0.27426,-0.15806,261.007,-7.52464,5.81784
695,1459121032,-0.70282,-0.942078,4.60571,-0.0926514,-0.115967,0.99939,-0.18312,0.2786,-0.12922,261.558,-7.43444,5.76589
696,1459121032,-0.224304,-2.00378,4.82254,-0.0908813,-0.14093,0.977783,-0.14322,0.29176,-0.09464,261.957,-7.50963,5.72134
697,1459121032,1.58508,-0.986938,5.57022,-0.107666,-0.165466,1.00439,-0.13664,0.30996,-0.1582,262.318,-7.69577,5.76125
698,1459121033,0.56076,0.224304,4.90479,-0.112549,-0.101501,1.01935,-0.13216,0.31794,-0.09352,262.652,-7.49212,5.81618
699,1459121033,-1.44302,0.254211,3.99261,-0.0940552,-0.122437,0.98584,-0.12502,0.31486,-0.16282,262.955,-7.45149,5.7801
700,1459121033,0.134583,-2.66174,4.58328,-0.0806274,-0.137207,0.983093,-0.11452,0.3087,-0.16198,263.218,-7.50016,5.67281
701,1459121033,0.179443,1.772,5.13657,-0.114807,-0.183411,1.00348,-0.15652,0.3108,-0.15288,263.608,-7.78915,5.75871
702,1459121033,1.03928,0.0747681,4.39636,-0.114136,-0.0974731,1.01605,-0.14028,0.31948,-0.10038,263.932,-7.55571,5.82483
703,1459121034,-2.0636,-0.0897217,2.51968,-0.0865479,-0.108948,0.97168,-0.1421,0.33124,-0.14686,264.249,-7.44318,5.75335
704,1459121034,1.39816,-2.08603,4.91226,-0.0778809,-0.133179,0.984802,-0.13062,0.315,-0.08862,264.527,-7.46873,5.63185
705,1459121034,1.44302,0.949554,4.26178,-0.162415,-0.156189,1.04449,-0.09688,0.3514,-0.11914,264.68,-7.57704,5.96835
706,1459121034,-1.00937,-0.964508,3.82065,-0.0861206,-0.0935669,1.00446,-0.0791,0.3612,-0.14896,264.769,-7.35183,5.86144
707,1459121034,-0.366364,-2.14584,4.48608,-0.0686035,-0.134705,0.985535,-0.08918,0.36134,-0.15554,264.886,-7.39437,5.67671
708,1459121035,0.171967,-0.433655,4.6431,-0.0789795,-0.181458,0.979065,-0.0819,0.35378,-0.1575,264.981,-7.7013,5.57241
709,1459121035,0.86731,0.919647,4.30664,-0.129395,-0.13031,1.01965,-0.07952,0.3591,-0.15834,265.065,-7.65867,5.74211
710,1459121035,-1.33087,-1.10657,3.17017,-0.0845337,-0.111816,0.998413,-0.11158,0.34566,-0.12586,265.245,-7.53233,5.65212
711,1459121035,-0.792542,-2.87109,3.32718,-0.06604,-0.123474,0.984192,-0.07056,0.3416,-0.08246,265.304,-7.49475,5.47381
712,1459121036,1.01685,0.620575,6.0936,-0.104919,-0.179504,1.01349,-0.0623,0.3696,-0.1477,265.325,-7.75466,5.51809
713,1459121036,-0.171967,-2.40005,5.29358,-0.114258,-0.072937,0.999695,-0.0441,0.34426,-0.08092,265.304,-7.39881,5.61845
714,1459121036,-1.3533,-0.157013,5.24872,-0.0953369,-0.137024,1.00452,-0.04606,0.3605,-0.14448,265.283,-7.43587,5.59868
715,1459121036,-0.650482,-3.76083,4.18701,-0.0742188,-0.125,0.963928,-0.04648,0.39438,-0.15582,265.249,-7.43132,5.48323
716,1459121036,0.134583,1.2262,6.31042,-0.126953,-0.170532,1.01416,-0.06132,0.39508,-0.14378,265.257,-7.64705,5.65149
717,1459121037,-0.530853,-1.80191,4.71039,-0.101929,-0.0733032,0.995056,-0.0609,0.3752,-0.09114,265.272,-7.30677,5.67116
718,1459121037,-0.665436,0.583191,5.62256,-0.0899658,-0.137146,0.998779,-0.05936,0.40404,-0.15484,265.27,-7.35804,5.61876
719,1459121037,0.456085,-2.3851,5.95901,-0.103821,-0.164246,1.00189,-0.04326,0.40544,-0.10598,265.225,-7.55475,5.64861
720,1459121037,-0.56076,-0.814972,5.83191,-0.121887,-0.144287,0.996704,-0.01344,0.3892,-0.1127,265.107,-7.62298,5.78104
721,1459121037,0.882263,-0.276642,4.60571,-0.10022,-0.0894775,1.03223,-0.01176,0.43638,-0.16072,264.97,-7.34932,5.75678
722,1459121038,-0.201874,-2.36267,4.62814,-0.0742188,-0.132263,0.965881,-0.00994,0.43176,-0.12292,264.834,-7.39271,5.62517
723,1459121038,2.01126,0.710297,5.86182,-0.120239,-0.187927,1.00391,-0.01148,0.41482,-0.1617,264.712,-7.71785,5.7465
724,1459121038,1.80939,-0.127106,4.7403,-0.144714,-0.137146,1.03381,0.00602,0.38444,-0.15134,264.559,-7.70124,5.97663
725,1459121038,-3.07297,-0.882263,3.78326,-0.0680542,-0.128784,0.974121,-0.0147,0.37534,-0.13664,264.466,-7.68466,5.78416
726,1459121038,1.31592,-2.43744,4.91226,-0.0886841,-0.151245,0.987915,0.0217,0.38976,-0.08526,264.277,-7.78578,5.71945
727,1459121039,0.157013,-0.583191,4.93469,-0.14563,-0.14856,1.01843,0.00112,0.38598,-0.12712,264.147,-7.83812,5.96676
728,1459121039,-0.201874,-0.927124,3.37204,-0.105347,-0.0878296,1.01544,0.03822,0.43414,-0.08386,263.911,-7.54629,5.96232
729,1459121039,-3.39447,-1.15143,4.20944,-0.0519409,-0.126343,0.973816,0.0434,0.40208,-0.16142,263.678,-7.53128,5.67985
730,1459121039,2.10098,-1.71219,7.17026,-0.0933838,-0.149536,1.0022,0.05236,0.40712,-0.1575,263.427,-7.62726,5.64412
731,1459121039,0.56076,0.142059,5.8992,-0.135071,-0.15741,1.02411,0.02506,0.40964,-0.15792,263.249,-7.74111,5.83583
732,1459121040,-1.18881,-1.45798,4.14963,-0.0940552,-0.103271,0.995117,0.0679,0.40096,-0.1624,262.973,-7.56121,5.79248
733,1459121040,-0.254211,-1.41312,5.65994,-0.0768433,-0.137329,0.981445,0.04606,0.4095,-0.16072,262.754,-7.60095,5.6635
734,1459121040,2.01874,0.254211,6.55716,-0.120605,-0.185059,1.00232,0.05964,0.36568,-0.10248,262.518,-7.88971,5.78386
735,1459121040,1.52527,-0.037384,3.74588,-0.119568,-0.102478,1.04407,0.09142,0.38108,-0.12572,262.207,-7.65323,5.86187
736,1459121040,-4.03,-1.46545,3.33466,-0.069458,-0.119141,0.954102,0.0959,0.40852,-0.15918,261.886,-7.60215,5.70008
737,1459121041,0.72525,-1.99631,5.36835,-0.0733032,-0.147217,0.97345,0.10052,0.42924,-0.1246,261.558,-7.69983,5.5642
738,1459121041,2.61688,1.57013,7.77588,-0.14624,-0.186646,1.03918,0.10892,0.39186,-0.1687,261.225,-7.95914,5.81933
739,1459121041,-1.46545,-3.27484,5.39078,-0.107239,-0.0878296,0.992371,0.11466,0.3892,-0.16562,260.885,-7.67276,5.85392
740,1459121041,-0.261688,-1.77948,5.60013,-0.0761719,-0.123962,0.977722,0.08148,0.35924,-0.15582,260.635,-7.629,5.71708
741,1459121041,1.16638,-2.04865,6.31042,-0.0993042,-0.147278,0.986572,0.12334,0.3598,-0.08974,260.293,-7.71445,5.72012
742,1459121042,1.56265,1.26358,6.5123,-0.148621,-0.160767,1.03821,0.09758,0.3493,-0.14924,260.017,-7.82759,5.97298
743,1459121042,-1.93649,-2.37015,3.39447,-0.085083,-0.0839233,0.984009,0.14448,0.34944,-0.10332,259.638,-7.53835,5.87157
744,1459121042,-2.45239,-2.42249,5.42816,-0.0733032,-0.138977,0.955627,0.15722,0.38262,-0.1652,259.233,-7.60919,5.7292
745,1459121042,2.01126,1.09161,6.98334,-0.13739,-0.177612,1.01196,0.15806,0.3794,-0.1736,258.835,-7.84871,5.93328
746,1459121042,-0.927124,-1.27106,4.38889,-0.108032,-0.0863647,1.00171,0.13104,0.35532,-0.16954,258.508,-7.55681,5.95561
747,1459121043,-3.28232,-2.19818,4.21692,-0.0731812,-0.136108,0.956909,0.16436,0.36932,-0.18004,258.11,-7.60877,5.80348
748,1459121043,1.31592,-1.47293,7.04315,-0.105225,-0.143982,0.978699,0.14252,0.3507,-0.17024,257.77,-7.68394,5.83638
749,1459121043,1.91406,1.89163,6.21323,-0.128296,-0.138977,1.03088,0.15022,0.32382,-0.10304,257.419,-7.68332,5.96691
750,1459121043,-4.23187,-3.36456,4.61319,-0.0707397,-0.100098,0.966553,0.1827,0.34818,-0.13328,257,-7.51148,5.79393
751,1459121044,2.28043,1.15143,2.87109,-0.106995,-0.121155,1.0307,0.19012,0.36134,-0.175,256.572,-7.42809,5.80765
752,1459121044,2.87857,1.9664,7.80579,-0.147583,-0.186462,1.04041,0.18872,0.33782,-0.13496,256.154,-7.71398,6.04419
753,1459121044,-0.403748,-1.89911,5.17395,-0.103821,-0.0938721,1.00549,0.20076,0.34818,-0.1785,255.716,-7.47601,6.02922
754,1459121044,-3.17764,-1.09161,4.75525,-0.0543213,-0.123108,0.968384,0.20496,0.31808,-0.18228,255.275,-7.4536,5.75678
755,1459121044,0.680389,-1.92154,7.10297,-0.0976562,-0.167664,0.993713,0.1715,0.2968,-0.15736,254.913,-7.66615,5.74243
756,1459121045,0.590668,1.88416,7.67868,-0.128113,-0.178284,1.01343,0.21518,0.29778,-0.1106,254.46,-7.90187,5.89114
757,1459121045,0.687866,-0.0747681,5.41321,-0.0914307,-0.0978394,1.02649,0.18354,0.34286,-0.161,254.087,-7.65129,5.80915
758,1459121045,-2.69165,-1.65985,6.28799,-0.071167,-0.135925,0.953918,0.23296,0.29862,-0.11368,253.607,-7.69518,5.66191
759,1459121045,1.08414,-1.09909,7.52167,-0.100769,-0.15448,0.994324,0.23338,0.32438,-0.1771,253.136,-7.80877,5.67437
760,1459121045,1.21124,0.732727,6.61697,-0.133545,-0.13324,1.02686,0.23828,0.33026,-0.18886,252.663,-7.76612,5.85315
761,1459121046,-3.34213,-1.42807,3.52158,-0.0650024,-0.106445,0.966614,0.189,0.31682,-0.1841,252.302,-7.62279,5.65912
762,1459121046,0.0523376,-3.03558,6.78146,-0.0838623,-0.143433,0.990967,0.2436,0.31878,-0.18284,251.829,-7.68387,5.57744
763,1459121046,1.15143,2.01874,7.69363,-0.141907,-0.192749,1.03027,0.21434,0.26712,-0.1764,251.416,-7.98628,5.81187
764,1459121046,-0.979462,-1.772,4.21692,-0.0978394,-0.114441,0.997986,0.24304,0.26404,-0.11326,250.945,-7.84242,5.79064
765,1459121046,-2.51221,-3.23746,5.17395,-0.0609741,-0.120911,0.946777,0.2464,0.24374,-0.15638,250.468,-7.7887,5.59065
766,1459121047,0.747681,1.36826,7.8656,-0.124756,-0.172729,1.00177,0.23226,0.25116,-0.1225,250.027,-7.99048,5.74291
767,1459121047,0.179443,-1.42807,6.69174,-0.115295,-0.102417,1.00873,0.25312,0.25732,-0.16534,249.549,-7.76936,5.82175
768,1459121047,-2.22061,-1.10657,5.33096,-0.0684204,-0.130859,0.992493,0.25606,0.25312,-0.19782,249.068,-7.74364,5.63506
769,1459121047,-1.55518,-3.1926,5.90668,-0.0831299,-0.135071,0.966858,0.2464,0.25844,-0.18452,248.616,-7.76401,5.56493
770,1459121047,1.36078,0.807495,6.87119,-0.145874,-0.184937,1.02014,0.24122,0.196,-0.16282,248.159,-8.02288,5.82977
771,1459121048,-0.613098,-2.96829,5.09171,-0.097229,-0.0853882,1.00977,0.25914,0.19432,-0.19992,247.667,-7.70181,5.79639
772,1459121048,-0.934601,-1.06171,6.30295,-0.0839233,-0.143616,1.00037,0.23576,0.18466,-0.17976,247.226,-7.74879,5.69615
773,1459121048,1.72714,-1.07666,6.67679,-0.114685,-0.15625,1.01123,0.25788,0.19516,-0.12572,246.744,-7.8538,5.77463
774,1459121048,1.68228,2.87857,5.91415,-0.123047,-0.134705,1.0354,0.26628,0.175,-0.19222,246.239,-7.80826,5.87837
775,1459121048,-1.57761,-0.657959,3.21503,-0.0874634,-0.0871582,1.02429,0.25746,0.19152,-0.19558,245.764,-7.50966,5.77679
776,1459121049,-2.20566,-2.66922,4.98703,-0.0528564,-0.115417,0.97168,0.25718,0.18956,-0.19432,245.293,-7.43837,5.51927
777,1459121049,1.33087,-0.613098,7.1254,-0.115601,-0.163208,1.00146,0.252,0.14994,-0.19474,244.818,-7.62091,5.626
778,1459121049,0.0971985,-0.328979,5.18143,-0.118286,-0.117493,1.01929,0.22414,0.18648,-0.2016,244.423,-7.5149,5.72711
779,1459121049,-1.00189,-1.80191,4.53842,-0.0877075,-0.0924683,0.973206,0.23282,0.15302,-0.13622,243.996,-7.31258,5.67097
780,1459121049,-0.246735,-1.99631,4.88235,-0.0778809,-0.118652,0.972168,0.26194,0.14896,-0.16716,243.507,-7.27809,5.56482
781,1459121050,-0.665436,0.284119,6.85623,-0.107178,-0.14563,1.00208,0.22554,0.1337,-0.1344,243.091,-7.37779,5.6191
782,1459121050,0.396271,-0.276642,5.61508,-0.106384,-0.0699463,1.02612,0.24402,0.11564,-0.16968,242.627,-7.02318,5.64988
783,1459121050,-1.68228,-0.0224304,5.46555,-0.0871582,-0.13855,0.985657,0.23492,0.11858,-0.20678,242.185,-7.11988,5.59108
784,1459121050,1.14395,-2.39258,5.31601,-0.09375,-0.115845,0.988892,0.2296,0.17052,-0.20496,241.787,-7.07648,5.5737
785,1459121051,0.418701,1.21872,6.7366,-0.120422,-0.160095,1.0108,0.19908,0.11676,-0.18032,241.425,-7.27183,5.69737
786,1459121051,-0.246735,-2.10098,5.45059,-0.0990601,-0.0754395,1.01105,0.22904,0.1169,-0.20286,241,-6.96977,5.68711
787,1459121051,-0.209351,-0.800018,5.66742,-0.0870972,-0.134216,0.994202,0.19124,0.10444,-0.17458,240.651,-7.04132,5.61952
788,1459121051,0.5159,-0.680389,5.98892,-0.119568,-0.163147,1.00159,0.22666,0.09002,-0.13426,240.216,-7.26374,5.73875
789,1459121051,3.67111,1.83929,2.10846,-0.118408,-0.103821,1.08264,0.2198,0.08876,-0.20468,239.796,-7.07259,5.79278
790,1459121052,-1.65237,-1.32339,5.24124,-0.0874634,-0.1026,0.981689,0.2107,0.10192,-0.19488,239.405,-6.96484,5.72438
791,1459121052,-0.88974,-2.82623,5.17395,-0.0756836,-0.127991,0.977051,0.20874,0.09506,-0.19754,239.015,-7.01343,5.59844
792,1459121052,0.86731,1.4505,6.20575,-0.11322,-0.151855,1.01135,0.20314,0.08022,-0.2037,238.627,-7.16767,5.67807
793,1459121052,1.34583,-0.201874,5.09171,-0.11731,-0.0841064,1.02228,0.16198,0.08036,-0.2009,238.33,-6.91819,5.76646
794,1459121052,-2.33276,-1.27853,5.29358,-0.0751953,-0.132935,0.977295,0.1771,0.07546,-0.1323,237.997,-6.99901,5.63352
795,1459121053,-1.29349,-0.201874,5.00946,-0.0783081,-0.160522,0.964966,0.19488,0.04788,-0.17332,237.603,-7.23653,5.53763
796,1459121053,1.129,1.42059,6.68427,-0.119873,-0.131714,1.02051,0.16534,0.02996,-0.13286,237.26,-7.24854,5.6563
797,1459121053,-4.61319,-3.11035,0.448608,-0.0587769,-0.100159,0.961609,0.1722,0.03836,-0.18606,236.907,-7.12327,5.44874
798,1459121053,0.598145,-1.95892,5.97397,-0.0697632,-0.125549,1.00085,0.17164,0.05628,-0.21224,236.57,-7.12595,5.30239
799,1459121053,0.224304,-0.441132,7.08054,-0.118896,-0.163574,0.994995,0.16688,0.05264,-0.2016,236.239,-7.34749,5.4536
800,1459121054,-0.171967,-0.874786,5.76462,-0.102783,-0.0909424,1.0155,0.13146,0.05838,-0.17878,235.993,-7.12173,5.48674
801,1459121054,-0.269165,-0.710297,4.66553,-0.0715332,-0.124023,1.00824,0.16058,0.03178,-0.21336,235.658,-7.11074,5.34299
802,1459121054,0.837402,-1.2262,5.12909,-0.0908813,-0.146729,0.995667,0.11438,0.0217,-0.1687,235.417,-7.23782,5.33028
803,1459121054,0.239258,1.14395,5.59265,-0.121643,-0.142212,1.02045,0.14056,0.02744,-0.15176,235.121,-7.30883,5.48015
804,1459121054,-1.21124,-1.30096,4.63562,-0.0890503,-0.108704,0.989258,0.13104,0.07938,-0.20958,234.894,-7.20638,5.4469
805,1459121055,-0.553284,-2.72903,5.30106,-0.0683594,-0.133667,0.978088,0.11774,0.0252,-0.203,234.646,-7.26284,5.3052
806,1459121055,0.291595,-0.433655,5.98145,-0.10144,-0.156738,1.00775,0.11914,0.02954,-0.21252,234.399,-7.42251,5.34989
807,1459121055,0.0672913,-0.411224,5.47302,-0.115479,-0.100708,0.999023,0.11172,0.02184,-0.20566,234.16,-7.25643,5.4745
808,1459121055,-0.687866,-0.86731,4.93469,-0.0914917,-0.11322,0.993164,0.07056,0.02926,-0.20272,234.024,-7.18166,5.4535
809,1459121055,0.18692,-2.258,5.9964,-0.0983276,-0.139038,0.993896,0.08512,0.01932,-0.13874,233.842,-7.25965,5.47307
810,1459121056,0,-0.134583,7.17773,-0.0996704,-0.159607,0.989624,0.091,-0.0042,-0.19698,233.622,-7.44921,5.50068
811,1459121056,1.08414,-0.934601,6.0936,-0.113403,-0.10675,1.00873,0.07938,-0.0112,-0.1386,233.421,-7.3073,5.59314
812,1459121056,-0.687866,-0.575714,6.23566,-0.105103,-0.140747,1.00983,0.07574,0.0329,-0.1939,233.273,-7.37076,5.6284
813,1459121056,-0.575714,-2.6767,4.55338,-0.0762329,-0.149292,0.972412,0.06706,0.02716,-0.20468,233.14,-7.50359,5.5168
814,1459121056,1.33087,1.70471,6.50482,-0.123413,-0.153748,1.01471,0.05236,-0.00336,-0.20328,233.008,-7.61688,5.6612
815,1459121057,0.568237,-0.284119,4.83002,-0.110962,-0.085083,1.01569,0.01498,-0.01848,-0.16156,232.951,-7.33115,5.71949
816,1459121057,-2.13837,-0.837402,5.10666,-0.0894165,-0.138123,0.994446,0.02982,-0.00336,-0.1967,232.874,-7.38855,5.66169
817,1459121057,0.433655,-1.79443,4.69543,-0.0884399,-0.147644,0.989075,-0.0014,0.0049,-0.15036,232.883,-7.49791,5.60706
818,1459121057,2.39258,0.919647,6.66183,-0.142212,-0.15271,1.02106,0.01512,0.00504,-0.14448,232.85,-7.60099,5.84492
819,1459121057,-0.927124,-0.777588,5.06927,-0.0964966,-0.098877,0.992798,0.02086,-0.00588,-0.19824,232.79,-7.41173,5.81581
820,1459121058,-2.00378,-2.7739,3.73093,-0.0706177,-0.122131,0.971313,0.014,0.01946,-0.20244,232.776,-7.38787,5.65474
821,1459121058,-0.0897217,-1.32339,5.83191,-0.102356,-0.158936,0.989929,0.00672,0.03584,-0.19978,232.8,-7.56072,5.67944
822,1459121058,0.575714,0.904694,5.59265,-0.120117,-0.111206,1.02185,-0.00168,0.02086,-0.20146,232.829,-7.42302,5.78444
823,1459121058,-0.104675,-0.269165,6.17584,-0.103394,-0.116882,1.00909,-0.04144,0.0063,-0.19348,232.947,-7.34082,5.79108
824,1459121059,-0.859833,-2.0636,5.73471,-0.0848999,-0.13501,0.998535,-0.0273,-0.0091,-0.12628,233.009,-7.37673,5.69821
825,1459121059,-0.598145,-0.874786,6.78146,-0.098999,-0.160034,0.984863,-0.01932,0.01904,-0.18564,233.084,-7.56026,5.70235
826,1459121059,1.06918,0.246735,6.82632,-0.112061,-0.110168,1.01825,-0.0287,0.00952,-0.1288,233.174,-7.41964,5.76123
827,1459121059,0.104675,0.224304,6.02631,-0.106079,-0.115967,1.01007,-0.03864,0.00476,-0.17934,233.287,-7.33201,5.78485
828,1459121059,-1.31592,-2.21313,5.2562,-0.0789185,-0.127014,0.975952,-0.04158,0.0105,-0.19726,233.417,-7.34012,5.67152
829,1459121060,-0.0747681,-0.463562,7.81326,-0.108521,-0.161682,0.991028,-0.0567,0.02898,-0.19082,233.613,-7.53218,5.72893
830,1459121060,1.83929,0.418701,4.37393,-0.109619,-0.0887451,1.05072,-0.09786,0.01638,-0.16618,233.914,-7.25032,5.75272
831,1459121060,-1.15891,-3.46176,5.42816,-0.0803223,-0.136719,0.991089,-0.07644,0.0175,-0.19418,234.158,-7.31013,5.64219
832,1459121060,-0.755157,-2.35519,7.05063,-0.0935669,-0.14209,0.991455,-0.11564,0.05628,-0.1659,234.567,-7.39404,5.61735
833,1459121060,0,-0.822449,7.11792,-0.111267,-0.13916,0.996826,-0.08834,0.02086,-0.13426,234.856,-7.44922,5.69233
834,1459121061,0.994415,0.171967,6.7067,-0.122314,-0.116699,1.01794,-0.09142,0.03234,-0.1946,235.172,-7.35704,5.8103
835,1459121061,-1.09161,-1.33087,4.79263,-0.0774536,-0.126465,0.982056,-0.10276,0.08344,-0.18564,235.586,-7.35516,5.68284
836,1459121061,-0.508423,-1.30844,5.55527,-0.100952,-0.13031,0.977661,-0.07924,0.05488,-0.18942,235.897,-7.37838,5.70367
837,1459121061,1.10657,0.269165,5.39825,-0.126892,-0.120117,1.02338,-0.11494,0.06482,-0.19236,236.333,-7.30852,5.84356
838,1459121061,-1.06918,0.00747681,4.26926,-0.0897217,-0.112854,0.985229,-0.12824,0.09296,-0.17556,236.846,-7.2323,5.78049
839,1459121062,-0.88974,-3.17017,4.85992,-0.0704346,-0.135132,0.973938,-0.12628,0.04298,-0.11326,237.3,-7.29757,5.62018
840,1459121062,0.171967,0.91217,6.21323,-0.101562,-0.161499,1.00659,-0.12026,0.0721,-0.17794,237.771,-7.48169,5.63445
841,1459121062,-0.575714,-0.927124,5.06927,-0.116943,-0.0756836,1.00647,-0.13062,0.06888,-0.11144,238.276,-7.16276,5.73472
842,1459121062,-2.22061,-0.343933,4.65805,-0.0723877,-0.119751,0.986572,-0.11746,0.063,-0.17668,238.734,-7.13883,5.58287
843,1459121062,-2.34024,-2.41501,-0.381317,-0.0852661,-0.123169,0.95874,-0.13608,0.09982,-0.19432,239.298,-7.15639,5.53459
844,1459121063,0.882263,0.942078,6.11603,-0.118469,-0.134827,1.00598,-0.1428,0.07896,-0.17962,239.864,-7.2047,5.65436
845,1459121063,-0.35141,-0.149536,5.5777,-0.107788,-0.098938,1.00366,-0.13972,0.08106,-0.18228,240.425,-7.04639,5.70233
846,1459121063,-2.45239,-3.75336,4.21692,-0.0662842,-0.124573,0.96167,-0.16842,0.10892,-0.18858,241.116,-7.07883,5.53221
847,1459121063,-1.12152,-0.792542,5.9964,-0.0924072,-0.148804,0.985107,-0.1813,0.08456,-0.14462,241.83,-7.22943,5.515
848,1459121063,1.2262,-0.411224,5.87677,-0.110107,-0.0917358,1.0152,-0.14112,0.09478,-0.12026,242.416,-7.01916,5.58403
849,1459121064,0.261688,-0.508423,6.24313,-0.0990601,-0.130615,1.005,-0.15722,0.12194,-0.17528,243.085,-7.05816,5.5886
850,1459121064,-0.508423,-1.2262,5.86182,-0.0918579,-0.134399,0.983093,-0.15736,0.11858,-0.12628,243.751,-7.13013,5.56383
851,1459121064,0.613098,-0.605621,6.03378,-0.10675,-0.106018,1.00342,-0.1666,0.16072,-0.1792,244.483,-7.01952,5.6152
852,1459121064,-0.37384,0.800018,4.87488,-0.0855713,-0.110229,1.01752,-0.16744,0.12348,-0.17598,245.187,-6.93426,5.53283
853,1459121064,-0.628052,-2.69913,5.10666,-0.0772705,-0.128601,0.979248,-0.20496,0.13146,-0.1708,246.033,-6.98818,5.43251
854,1459121065,-0.471039,1.32339,6.57211,-0.106567,-0.146301,0.999756,-0.18046,0.14182,-0.10892,246.793,-7.12282,5.49803
855,1459121065,1.3533,0.18692,5.03937,-0.114563,-0.0835571,1.03253,-0.20734,0.14504,-0.17206,247.652,-6.866,5.58423
856,1459121065,-1.39816,-0.755157,5.72723,-0.0950317,-0.134705,0.985474,-0.16408,0.16856,-0.11158,248.359,-6.95677,5.57672
857,1459121065,-1.60751,-2.45987,4.39636,-0.0797119,-0.140808,0.981445,-0.17262,0.18662,-0.15288,249.102,-7.07603,5.48489
858,1459121066,0.755157,-1.33087,5.78705,-0.123108,-0.130981,1.00665,-0.17262,0.19096,-0.17052,249.837,-7.11011,5.63539
859,1459121066,-0.18692,-0.0747681,5.52536,-0.115784,-0.102173,1.01495,-0.18774,0.18788,-0.17402,250.619,-6.97213,5.72417
860,1459121066,0.418701,-2.01874,5.74219,-0.0935669,-0.133606,1.0116,-0.17962,0.18606,-0.17612,251.361,-7.02797,5.67974
861,1459121066,-0.934601,-1.95145,4.94217,-0.100769,-0.158508,0.972229,-0.16954,0.19236,-0.16506,252.059,-7.24655,5.70291
862,1459121066,1.20377,0.0822449,4.24683,-0.118408,-0.101379,1.0094,-0.20846,0.2121,-0.1211,252.897,-7.09423,5.80289
863,1459121067,-1.52527,-0.418701,3.39447,-0.0911865,-0.115173,0.977478,-0.17066,0.2093,-0.10934,253.582,-7.05755,5.7565
864,1459121067,0.0672913,-2.1907,3.37204,-0.0791016,-0.129028,0.984741,-0.1652,0.2317,-0.17318,254.239,-7.09788,5.64155
865,1459121067,0.590668,1.42059,4.30664,-0.107849,-0.159607,1.00726,-0.17094,0.24234,-0.11312,254.907,-7.29132,5.68908
866,1459121067,0.957031,1.16638,2.64679,-0.101807,-0.0856934,1.03284,-0.1729,0.2611,-0.1687,255.569,-7.02933,5.68293
867,1459121067,-1.09161,-0.0149536,2.8038,-0.0708618,-0.132324,0.990173,-0.1659,0.22442,-0.17136,256.19,-7.08712,5.52576
868,1459121068,0.814972,-1.56265,4.38141,-0.0880737,-0.151733,0.986572,-0.2072,0.22148,-0.16828,256.949,-7.25144,5.48384
869,1459121068,3.14774,1.97388,3.68607,-0.114685,-0.119629,1.0321,-0.17276,0.22512,-0.09352,257.57,-7.18557,5.57226
870,1459121068,-2.04865,-0.568237,2.84866,-0.0831299,-0.102783,0.984192,-0.20566,0.2765,-0.14938,258.293,-7.06538,5.49907
871,1459121068,-0.70282,-1.97388,3.72345,-0.0635986,-0.124451,0.980347,-0.17612,0.25032,-0.09856,258.896,-7.08203,5.32387
872,1459121068,-0.508423,-0.0299072,5.97397,-0.102783,-0.188599,0.986877,-0.14588,0.26334,-0.1498,259.378,-7.45533,5.38553
873,1459121069,-0.246735,-0.971985,5.71228,-0.0999756,-0.0858765,1.00543,-0.15176,0.31248,-0.16548,259.86,-7.19714,5.41507
874,1459121069,-1.86172,-0.620575,6.49734,-0.095459,-0.14325,0.978455,-0.16394,0.29526,-0.16646,260.374,-7.30865,5.43052
875,1459121069,-0.485992,-3.84308,5.51788,-0.076416,-0.154358,0.981384,-0.14784,0.28322,-0.16226,260.821,-7.47012,5.3341
876,1459121069,0.0523376,1.42807,5.57022,-0.105103,-0.163574,0.99884,-0.16114,0.28238,-0.16646,261.303,-7.65468,5.40172
877,1459121069,0.471039,-1.21124,4.53842,-0.109131,-0.0844116,1.02075,-0.17626,0.32256,-0.1176,261.813,-7.35663,5.47352
878,1459121070,-1.09161,-0.523376,4.50851,-0.0927734,-0.1474,0.993408,-0.12754,0.32732,-0.10948,262.143,-7.46483,5.45975
879,1459121070,1.78696,-2.40753,5.72723,-0.0773926,-0.152649,1.00049,-0.1393,0.30562,-0.168,262.51,-7.58656,5.35592
880,1459121070,1.28601,1.85425,5.39825,-0.131775,-0.155396,1.01892,-0.11844,0.3178,-0.10346,262.794,-7.69742,5.56186
881,1459121070,-1.7421,-0.246735,3.99261,-0.098877,-0.0883789,1.00153,-0.13426,0.31892,-0.16352,263.122,-7.43277,5.56952
882,1459121070,-0.740204,-2.34024,4.04495,-0.0714111,-0.132812,0.988037,-0.1295,0.3192,-0.16436,263.425,-7.45486,5.42774
883,1459121071,-0.157013,-0.403748,4.75525,-0.107605,-0.191345,0.995056,-0.15512,0.33866,-0.15232,263.794,-7.79964,5.50202
884,1459121071,0.837402,0.00747681,1.99631,-0.109741,-0.09021,1.02179,-0.12152,0.33208,-0.16016,264.049,-7.51979,5.56623
885,1459121071,-1.6748,-1.8692,3.2225,-0.0731812,-0.115662,0.996033,-0.15078,0.33824,-0.13706,264.385,-7.4307,5.43062
886,1459121071,1.08414,-2.58698,4.83002,-0.0785522,-0.138245,0.987976,-0.11368,0.32802,-0.08708,264.602,-7.48366,5.34323
887,1459121071,7.16278,3.11783,3.11035,-0.128662,-0.167358,1.12836,-0.10822,0.35812,-0.15568,264.784,-7.59015,5.47304
888,1459121072,-1.11404,-2.1608,2.24304,-0.0870361,-0.0927734,0.980408,-0.1078,0.385,-0.15582,264.947,-7.37868,5.43419
889,1459121072,-1.38321,-2.82623,2.3851,-0.0493164,-0.119995,0.961975,-0.10402,0.3661,-0.15008,265.102,-7.35298,5.19545
890,1459121072,2.23557,1.58508,6.57211,-0.11969,-0.18634,1.00433,-0.10038,0.3654,-0.14938,265.242,-7.67123,5.35597
891,1459121072,-0.0523376,-1.27106,3.43933,-0.110962,-0.0968628,1.00073,-0.11564,0.357,-0.15792,265.426,-7.45846,5.45295
892,1459121073,-1.60004,-0.291595,2.63931,-0.0855713,-0.133118,0.987122,-0.11102,0.35882,-0.09198,265.591,-7.48032,5.40388
893,1459121073,1.27853,-2.37015,3.69354,-0.0872803,-0.152283,1.00214,-0.07364,0.3668,-0.11956,265.64,-7.59664,5.36127
894,1459121073,1.11404,1.18134,5.49545,-0.122681,-0.180481,1.01868,-0.09576,0.34048,-0.08512,265.763,-7.84675,5.51448
895,1459121073,-0.127106,-1.28601,2.81128,-0.100403,-0.0802002,1.02051,-0.07154,0.37142,-0.11774,265.8,-7.50846,5.52509
896,1459121073,-1.55518,-2.43744,4.46365,-0.0662231,-0.135742,0.96936,-0.06608,0.39802,-0.15498,265.81,-7.55331,5.36897
897,1459121074,1.30096,-0.583191,7.31232,-0.10791,-0.174622,1.01526,-0.0665,0.3773,-0.15708,265.829,-7.7777,5.4397
898,1459121074,0.201874,-1.55518,5.62256,-0.097168,-0.112122,1.00806,-0.08428,0.36638,-0.13104,265.901,-7.63438,5.44634
899,1459121074,-2.04117,-0.231781,4.78516,-0.0828247,-0.116455,0.982483,-0.04186,0.39494,-0.15526,265.844,-7.54873,5.38483
900,1459121074,-0.00747681,-1.60751,3.92532,-0.0831909,-0.138855,0.974609,-0.07308,0.37072,-0.12768,265.883,-7.60342,5.33549
901,1459121074,1.46545,2.22809,6.58707,-0.13092,-0.182312,1.00989,-0.03346,0.41804,-0.0833,265.794,-7.87068,5.54335
902,1459121075,-0.0224304,-0.545807,4.49356,-0.120483,-0.0967407,1.01904,-0.02436,0.38808,-0.1561,265.697,-7.62287,5.66561
903,1459121075,-2.50473,-1.57013,5.05432,-0.0744019,-0.127136,0.974792,-0.02296,0.39074,-0.15932,265.597,-7.60414,5.53892
904,1459121075,0.284119,-2.43744,4.36646,-0.081543,-0.144714,0.963928,-0.01344,0.41202,-0.15736,265.466,-7.69474,5.47088
905,1459121075,1.40564,-1.56265,5.51788,-0.137451,-0.165161,1.03088,-0.00896,0.40236,-0.15582,265.332,-7.84042,5.6908
906,1459121075,-1.08414,-1.3533,4.82254,-0.0899658,-0.098938,0.999451,-0.03444,0.40026,-0.15484,265.267,-7.62259,5.63611
907,1459121076,-0.628052,-1.70471,5.79453,-0.0690308,-0.129578,0.978821,-0.01722,0.39802,-0.08526,265.16,-7.61458,5.4792
908,1459121076,1.38321,-0.0672913,6.69174,-0.111084,-0.198059,1.01929,0.04046,0.3906,-0.1211,264.913,-7.96235,5.55481
909,1459121076,-0.0672913,-1.83182,5.14404,-0.124573,-0.0999756,1.01538,0.0007,0.37464,-0.0812,264.778,-7.72616,5.7012
910,1459121076,-2.1907,-1.51031,4.7702,-0.0789795,-0.114868,0.977295,0.02758,0.40614,-0.11242,264.568,-7.62629,5.59558
911,1459121076,0.583191,-2.13837,5.44312,-0.0912476,-0.137878,0.999451,0.03654,0.41972,-0.1589,264.336,-7.64915,5.55767
912,1459121077,1.33087,1.03928,7.09549,-0.138428,-0.199158,1.01605,0.03794,0.42518,-0.16058,264.105,-8.00159,5.78203
913,1459121077,-3.58887,-1.91406,3.28979,-0.101257,-0.0922241,0.985535,0.03024,0.406,-0.13342,263.905,-7.74094,5.79033
914,1459121077,-3.11783,-1.85425,4.62067,-0.0648804,-0.152527,0.962952,0.05852,0.41216,-0.16282,263.639,-7.86316,5.60356
915,1459121077,2.31781,-1.00937,5.71228,-0.115845,-0.161255,1.00787,0.0231,0.39172,-0.14588,263.471,-7.98758,5.70011
916,1459121077,1.59256,1.52527,5.39825,-0.139709,-0.149109,1.03503,0.07028,0.40376,-0.09072,263.19,-8.00934,5.90643
917,1459121078,-2.75146,-1.20377,2.86362,-0.0706177,-0.0888062,0.985168,0.07728,0.3878,-0.15652,262.903,-7.72897,5.72874
918,1459121078,-0.493469,-2.32529,5.19638,-0.0650635,-0.142273,0.956726,0.08974,0.41146,-0.16338,262.586,-7.79924,5.55238
919,1459121078,3.99261,2.60941,7.28241,-0.138306,-0.181946,1.01556,0.09002,0.40936,-0.16058,262.277,-8.04084,5.77768
920,1459121078,-1.09909,-1.36826,4.52347,-0.100708,-0.0939331,1.00189,0.09646,0.38374,-0.16478,261.966,-7.77253,5.77389
921,1459121078,-3.1926,-2.10846,5.09171,-0.0578613,-0.130371,0.958069,0.07448,0.4193,-0.16856,261.705,-7.77026,5.55105
922,1459121079,1.2262,-1.71219,6.63193,-0.101501,-0.156555,0.989685,0.09646,0.41832,-0.11368,261.399,-7.89206,5.58143
923,1459121079,1.47293,1.98135,6.57211,-0.130676,-0.183899,1.01611,0.12152,0.38584,-0.133,261.048,-8.13504,5.7603
924,1459121079,0.755157,-0.403748,4.3515,-0.108032,-0.0999756,1.02557,0.1113,0.36988,-0.1057,260.731,-7.87264,5.7863
925,1459121079,-1.2561,-1.7421,5.86182,-0.081665,-0.140503,0.984619,0.13006,0.42084,-0.13328,260.369,-7.8972,5.68325
926,1459121079,1.04675,-0.336456,7.64877,-0.116028,-0.180969,1.00287,0.13762,0.3696,-0.17374,260.004,-8.13295,5.77551
927,1459121080,0.493469,0.0299072,5.66742,-0.102173,-0.125122,1.02393,0.1456,0.37352,-0.17066,259.628,-8.01387,5.76762
928,1459121080,-2.21313,-0.829926,4.9646,-0.0835571,-0.121094,0.990784,0.13972,0.38318,-0.1722,259.272,-7.91041,5.67385
929,1459121080,1.49536,-2.98325,4.40384,-0.0769653,-0.123779,0.977173,0.161,0.36218,-0.16996,258.876,-7.84277,5.55934
930,1459121080,1.79443,1.52527,6.60202,-0.145569,-0.19165,1.00891,0.13034,0.3598,-0.1498,258.556,-8.1393,5.82854
931,1459121081,2.17575,0.328979,4.21692,-0.129395,-0.103638,1.04358,0.17304,0.35196,-0.10332,258.148,-7.88372,5.95782
932,1459121081,-2.07108,-1.98135,3.64868,-0.102844,-0.178345,1.01862,0.1778,0.34076,-0.17486,257.735,-8.09237,5.9383
933,1459121081,0.216827,-2.78885,6.72913,-0.0887451,-0.141174,0.978699,0.17836,0.3612,-0.1176,257.328,-8.10368,5.86442
934,1459121081,0.91217,0.613098,6.56464,-0.141357,-0.148865,1.01953,0.19096,0.37576,-0.16968,256.901,-8.12437,6.07134
935,1459121081,-1.39069,-0.643005,3.74588,-0.0875244,-0.108459,0.997864,0.19068,0.3311,-0.17654,256.481,-7.93399,5.96619
936,1459121082,-0.620575,-2.44492,4.98703,-0.0767212,-0.125671,0.987427,0.16072,0.36806,-0.18018,256.134,-7.86695,5.81633
937,1459121082,1.50284,0.672913,7.01324,-0.12384,-0.178772,1.01495,0.19768,0.32102,-0.11004,255.712,-8.08287,5.93197
938,1459121082,1.59256,-0.448608,4.6431,-0.120056,-0.0899048,1.05939,0.16562,0.3409,-0.17752,255.366,-7.7454,5.98807
939,1459121082,-1.772,-1.129,4.94965,-0.0647583,-0.136658,0.992737,0.20958,0.32158,-0.11676,254.929,-7.75453,5.76636
940,1459121082,1.33087,-2.12341,5.159,-0.10083,-0.150574,0.987976,0.21616,0.3143,-0.1701,254.484,-7.84427,5.77235
941,1459121083,2.11594,1.59256,6.85623,-0.151917,-0.190247,1.02856,0.2268,0.3066,-0.18802,254.021,-8.11504,6.04214
942,1459121083,-0.0747681,-1.55518,4.26178,-0.0951538,-0.078064,1.02435,0.19502,0.3367,-0.19124,253.637,-7.73628,5.9676
943,1459121083,-3.63373,-2.26547,4.71786,-0.0549927,-0.124817,0.947693,0.22862,0.28546,-0.1918,253.18,-7.71425,5.71843
944,1459121083,1.82434,-2.22061,8.02261,-0.106079,-0.154785,1.00043,0.2121,0.30352,-0.18382,252.767,-7.82235,5.7518
945,1459121083,0.86731,0.201874,7.3497,-0.13501,-0.159668,1.02039,0.20188,0.29638,-0.15862,252.381,-7.93142,5.93374
946,1459121084,-2.27295,-1.98883,4.09729,-0.0830078,-0.081604,0.966187,0.23842,0.30422,-0.1316,251.923,-7.63347,5.83508
947,1459121084,-1.83929,-1.86172,4.05243,-0.0542603,-0.135193,0.947937,0.23884,0.29456,-0.19138,251.468,-7.67954,5.59221
948,1459121084,1.71967,1.01685,7.6712,-0.142212,-0.185669,1.02728,0.24276,0.2751,-0.1421,251.007,-7.94507,5.8287
949,1459121084,-0.142059,-3.80569,4.68796,-0.109558,-0.0934448,1.0152,0.24206,0.2541,-0.19138,250.549,-7.67384,5.86228
950,1459121084,-3.59634,-1.59256,5.66742,-0.0585938,-0.115906,0.957764,0.24766,0.26894,-0.19194,250.087,-7.59956,5.63594
951,1459121085,0.239258,-2.09351,6.78894,-0.0812988,-0.154053,1.00238,0.2156,0.24612,-0.18326,249.692,-7.71428,5.53559
952,1459121085,1.69724,1.18134,8.94226,-0.134827,-0.172791,1.01959,0.24556,0.21168,-0.1232,249.229,-7.90951,5.74016
953,1459121085,-0.134583,-2.1907,4.65805,-0.0876465,-0.0705566,1.00854,0.22302,0.19936,-0.19068,248.813,-7.51808,5.66224
954,1459121085,-3.17017,-1.87668,4.50851,-0.0626831,-0.125488,0.955505,0.26082,0.27412,-0.12474,248.344,-7.51461,5.47948
955,1459121085,1.80939,-1.63742,5.87677,-0.0903931,-0.142212,1.01233,0.24808,0.22442,-0.1904,247.891,-7.5636,5.44123
956,1459121086,0.680389,-0.142059,6.16089,-0.130493,-0.145325,1.0141,0.25088,0.21504,-0.19446,247.433,-7.62374,5.63386
957,1459121086,-2.1608,-2.1907,4.08234,-0.0726929,-0.0965576,0.982239,0.23072,0.20496,-0.19558,247.018,-7.42656,5.49611
958,1459121086,-1.85425,-1.7421,5.14404,-0.0684814,-0.121948,0.962952,0.2499,0.19236,-0.2009,246.562,-7.40631,5.35797
959,1459121086,-0.037384,0.710297,6.7067,-0.12561,-0.174927,0.997253,0.2226,0.19586,-0.19628,246.167,-7.66288,5.5412
960,1459121086,-0.299072,-0.381317,4.27673,-0.135864,-0.0982056,1.01147,0.22092,0.16898,-0.14392,245.768,-7.44868,5.75622
961,1459121087,-2.69913,-0.852356,3.14026,-0.0531616,-0.113342,0.99823,0.25172,0.18592,-0.1491,245.314,-7.35157,5.48581
962,1459121087,0.732727,-1.46545,5.51041,-0.0959473,-0.136353,0.97467,0.23492,0.18102,-0.2023,244.896,-7.41168,5.49918
963,1459121087,2.07108,2.09351,6.33286,-0.143738,-0.164917,1.03583,0.238,0.1435,-0.15582,244.457,-7.58193,5.74941
964,1459121087,-1.89163,-0.239258,1.2561,-0.0958252,-0.098999,1.04565,0.24486,0.14882,-0.19852,244.008,-7.35622,5.69593
965,1459121088,-1.97388,-1.57761,4.74777,-0.0643921,-0.126953,0.966187,0.23702,0.1463,-0.20356,243.577,-7.36873,5.51432
966,1459121088,1.39816,1.30096,6.94595,-0.120483,-0.157104,0.999939,0.19628,0.12642,-0.1953,243.224,-7.5254,5.65033
967,1459121088,2.79633,0.568237,5.51788,-0.13739,-0.129517,1.04095,0.2387,0.13874,-0.13804,242.788,-7.48051,5.84478
968,1459121088,-2.47482,-2.13837,4.05243,-0.0737305,-0.0944214,0.966797,0.19292,0.11858,-0.19124,242.441,-7.2972,5.70162
969,1459121088,-1.0318,-2.1907,4.71039,-0.065979,-0.129456,0.966614,0.23212,0.13776,-0.13776,242.022,-7.32931,5.52776
970,1459121089,1.62247,1.23367,7.43942,-0.128357,-0.178162,1.01819,0.22722,0.13202,-0.19432,241.612,-7.59555,5.6972
971,1459121089,-0.306549,-0.18692,4.38141,-0.100769,-0.0860596,1.01764,0.22484,0.11704,-0.20734,241.2,-7.31606,5.69292
972,1459121089,-1.06171,-0.643005,5.89172,-0.079895,-0.129578,0.991943,0.19446,0.09142,-0.2107,240.838,-7.3286,5.58513
973,1459121089,0.628052,-2.42996,6.33286,-0.0883789,-0.122437,0.999817,0.2149,0.11214,-0.20538,240.447,-7.29392,5.53181
974,1459121089,3.17017,2.81876,6.43005,-0.11261,-0.151794,1.01465,0.18956,0.11074,-0.2023,240.109,-7.41733,5.61311
975,1459121090,0.396271,-0.343933,5.43564,-0.0949707,-0.098999,1.02594,0.17556,0.05642,-0.15792,239.767,-7.22323,5.57997
976,1459121090,-1.36078,-0.0672913,6.10107,-0.0757446,-0.13916,0.986694,0.20034,0.0749,-0.16912,239.384,-7.3026,5.46296
977,1459121090,0.590668,-1.27853,7.98523,-0.107056,-0.151672,0.985291,0.20328,0.1043,-0.20622,239.014,-7.44574,5.53575
978,1459121090,0.0822449,0.119629,6.64688,-0.105713,-0.129822,0.999329,0.20062,0.06636,-0.1652,238.624,-7.44134,5.58602
979,1459121090,-0.216827,-0.665436,4.91226,-0.10614,-0.0970459,0.995422,0.18004,0.0651,-0.21308,238.279,-7.25549,5.63588
980,1459121091,0.00747681,-0.844879,5.62256,-0.0910645,-0.131409,0.993591,0.18564,0.06692,-0.20902,237.922,-7.28321,5.5962
981,1459121091,0.231781,-1.02432,6.07864,-0.104797,-0.156372,0.990112,0.14644,0.04984,-0.19558,237.638,-7.45161,5.64044
982,1459121091,0.949554,0.306549,4.94965,-0.1203,-0.10968,1.01447,0.1673,0.05544,-0.14042,237.311,-7.32196,5.75454
983,1459121091,-0.56076,-0.747681,4.94965,-0.107361,-0.124146,0.995178,0.12334,0.0763,-0.19628,237.098,-7.30094,5.79467
984,1459121091,-0.209351,-1.98135,3.76831,-0.0759888,-0.134033,0.98645,0.15918,0.04704,-0.14518,236.782,-7.34414,5.65759
985,1459121092,1.23367,1.08414,5.39078,-0.0991821,-0.156433,1.00085,0.15148,0.03626,-0.21448,236.474,-7.49897,5.65777
986,1459121092,1.08414,0.500946,5.49545,-0.133728,-0.104797,1.0224,0.14518,0.0357,-0.21658,236.178,-7.33128,5.84164
987,1459121092,-1.33087,-0.343933,4.53842,-0.0861206,-0.127808,0.985352,0.10346,0.04606,-0.21168,235.984,-7.33712,5.75826
988,1459121092,-1.63742,-3.18512,4.48608,-0.06604,-0.126587,0.956726,0.13034,0.04536,-0.21476,235.728,-7.35636,5.5847
989,1459121092,1.58508,0.0822449,6.10855,-0.114197,-0.176575,0.985901,0.09282,0.04298,-0.20566,235.554,-7.63564,5.68627
990,1459121093,0.35141,-0.583191,4.29916,-0.115906,-0.0958862,1.02411,0.10766,0.00868,-0.14784,235.315,-7.40176,5.76554
991,1459121093,-1.93649,-1.30096,3.48419,-0.0792847,-0.148132,0.979187,0.13594,0.07546,-0.18382,235.071,-7.52021,5.65393
992,1459121093,-1.11404,-2.10098,4.33655,-0.0838013,-0.141418,0.963806,0.10864,0.03262,-0.2044,234.85,-7.60071,5.58748
993,1459121093,0.979462,1.36826,6.27304,-0.119873,-0.162109,1.021,0.10346,0.05054,-0.18592,234.657,-7.747,5.70147
994,1459121093,0.0672913,-0.657959,4.92722,-0.105286,-0.0878296,1.01233,0.09478,-0.0028,-0.20916,234.433,-7.46525,5.72546
995,1459121094,-1.80191,-1.62994,5.27863,-0.0846558,-0.139282,0.981567,0.07938,0.04046,-0.20622,234.285,-7.52559,5.64703
996,1459121094,-0.710297,-2.51221,5.90668,-0.0839844,-0.135742,0.981628,0.04844,0.00826,-0.19782,234.179,-7.55994,5.57236
997,1459121094,0.18692,-0.209351,7.32727,-0.112244,-0.150391,1.00385,0.07644,0.01484,-0.14588,234.011,-7.65705,5.65395
998,1459121094,-0.261688,-1.5477,6.25061,-0.104858,-0.113953,1.00482,0.03262,-0.01316,-0.17976,233.919,-7.53756,5.6846
999,1459121094,-0.53833,-2.34772,5.74219,-0.0707397,-0.127625,0.990662,0.05586,0.00042,-0.14238,233.784,-7.51799,5.52568
